,response,rt,color,dimension,sheet_num,trial_num,subj_id,question_type
1,rat,37465.655,brown,happy,3,1,AAC9DJ81ZXUE7,critical
2,grape,3028.265,brown,unripe,3,2,AAC9DJ81ZXUE7,critical
3,wood,3092.55,brown,hard,3,3,AAC9DJ81ZXUE7,critical
4,beetle,4370.38,blue,angry,3,4,AAC9DJ81ZXUE7,critical
5,DMX,3751.25,brown,sad,3,5,AAC9DJ81ZXUE7,critical
6,eggplant,2857.51,purple,liked,3,6,AAC9DJ81ZXUE7,critical
7,grape,2816.285,blue,ripe,3,7,AAC9DJ81ZXUE7,critical
8,wood,3948.43,brown,slow,3,8,AAC9DJ81ZXUE7,critical
9,zombie,10258.055,purple,dead,3,9,AAC9DJ81ZXUE7,critical
10,blueberry,6627.225,blue,clean,3,10,AAC9DJ81ZXUE7,critical
11,sportscar,3604.225,blue,exciting,3,11,AAC9DJ81ZXUE7,critical
12,ocean,3035.465,blue,calm,3,12,AAC9DJ81ZXUE7,critical
13,frog ,16655.02,blue,alive,3,13,AAC9DJ81ZXUE7,critical
14,lobster,7687.04,blue,slow,3,14,AAC9DJ81ZXUE7,critical
15,seastar,11466.25,purple,jealous,3,15,AAC9DJ81ZXUE7,critical
16,mouse ,4300.18,brown,tense,3,16,AAC9DJ81ZXUE7,critical
17,coconut,3940.74,brown,ripe,3,17,AAC9DJ81ZXUE7,critical
18,weight,10926.94,purple,heavy,3,18,AAC9DJ81ZXUE7,critical
19,CD,3889.6,brown,new,3,19,AAC9DJ81ZXUE7,critical
20,bird,5377.935,purple,happy,3,20,AAC9DJ81ZXUE7,critical
21,snail,3573.425,purple,light,3,21,AAC9DJ81ZXUE7,critical
22,bear,3026.705,brown,alive,3,22,AAC9DJ81ZXUE7,critical
23,seastar,3193.15,purple,tense,3,23,AAC9DJ81ZXUE7,critical
24,jet,2831.6,blue,fast,3,24,AAC9DJ81ZXUE7,critical
25,table,4530.21,blue,hard,3,25,AAC9DJ81ZXUE7,critical
26,car,3122.325,blue,heavy,3,26,AAC9DJ81ZXUE7,critical
27,sandy,10202.895,purple,hot,3,27,AAC9DJ81ZXUE7,critical
28,thanos,3962.615,purple,selfless,3,28,AAC9DJ81ZXUE7,critical
29,martin,8097.32,purple,dirty,3,29,AAC9DJ81ZXUE7,critical
30,jeans,2717.455,blue,jealous,3,30,AAC9DJ81ZXUE7,critical
31,macaw,6114.62,blue,submissive,3,31,AAC9DJ81ZXUE7,critical
32,iguana,5111.39,blue,active,3,32,AAC9DJ81ZXUE7,critical
33,block,9635.935,brown,dull,3,33,AAC9DJ81ZXUE7,critical
34,horse ,13463.12,brown,selfless,3,34,AAC9DJ81ZXUE7,critical
35,polish,6620.9,brown,disliked,3,35,AAC9DJ81ZXUE7,critical
36,grover,8362.335,blue,selfless,3,36,AAC9DJ81ZXUE7,critical
37,frog,3090.105,brown,liked,3,37,AAC9DJ81ZXUE7,critical
38,thanos,2418.06,purple,disliked,3,38,AAC9DJ81ZXUE7,critical
39,bear,2795.875,brown,heavy,3,39,AAC9DJ81ZXUE7,critical
40,smurf,5756.415,blue,light,3,40,AAC9DJ81ZXUE7,critical
41,smurfette,4851.095,blue,relaxed,3,41,AAC9DJ81ZXUE7,critical
42,pillow,4243.88,brown,soft,3,42,AAC9DJ81ZXUE7,critical
43,feather,2934.425,brown,light,3,43,AAC9DJ81ZXUE7,critical
44,thanos,2674.855,purple,aggressive,3,44,AAC9DJ81ZXUE7,critical
45,scully,2718.64,blue,new,3,45,AAC9DJ81ZXUE7,critical
46,aayla,5828.1,blue,dull,3,46,AAC9DJ81ZXUE7,critical
47,cow,5565.65,brown,active,3,47,AAC9DJ81ZXUE7,critical
48,eggplant,2723.89,purple,ripe,3,48,AAC9DJ81ZXUE7,critical
49,scully,3066.965,blue,soft,3,49,AAC9DJ81ZXUE7,critical
50,fire,2534.615,blue,hot,3,50,AAC9DJ81ZXUE7,critical
51,gonzo,5746.945,blue,aggressive,3,51,AAC9DJ81ZXUE7,critical
52,grandfather,7924.01,brown,old,3,52,AAC9DJ81ZXUE7,critical
53,james,3417.12,brown,jealous,3,53,AAC9DJ81ZXUE7,critical
54,thanos,2294.68,purple,angry,3,54,AAC9DJ81ZXUE7,critical
55,grimace,3505.72,purple,sad,3,55,AAC9DJ81ZXUE7,critical
56,snail,7189.14,purple,submissive,3,56,AAC9DJ81ZXUE7,critical
57,butterfly,5970.795,purple,passive,3,58,AAC9DJ81ZXUE7,critical
58,wolf,3248,brown,aggressive,3,59,AAC9DJ81ZXUE7,critical
59,gonzo,5833.52,blue,disliked,3,60,AAC9DJ81ZXUE7,critical
60,twilight,11587.28,purple,active,3,61,AAC9DJ81ZXUE7,critical
61,wolf,3957.005,brown,angry,3,62,AAC9DJ81ZXUE7,critical
62,gonzo,5077.055,blue,dirty,3,63,AAC9DJ81ZXUE7,critical
63,grape,3615.835,purple,unripe,3,65,AAC9DJ81ZXUE7,critical
64,grandfather,4195.715,brown,calm,3,66,AAC9DJ81ZXUE7,critical
65,gonzo,5597.645,blue,passive,3,67,AAC9DJ81ZXUE7,critical
66,dre,2922.745,brown,passive,3,68,AAC9DJ81ZXUE7,critical
67,sonic,2195.515,blue,happy,3,69,AAC9DJ81ZXUE7,critical
68,count,16693.09,purple,dull,3,70,AAC9DJ81ZXUE7,critical
69,ice,2401.17,blue,cold,3,71,AAC9DJ81ZXUE7,critical
70,pasta,3416.585,brown,stale,3,72,AAC9DJ81ZXUE7,critical
71,pasta,2215.63,brown,hot,3,73,AAC9DJ81ZXUE7,critical
72,leela,5385.4,purple,slow,3,74,AAC9DJ81ZXUE7,critical
73,chocolate,5098.675,brown,exciting,3,75,AAC9DJ81ZXUE7,critical
74,fifi,8356.415,purple,exciting,3,76,AAC9DJ81ZXUE7,critical
75,grandmother,4435.415,brown,dead,3,77,AAC9DJ81ZXUE7,critical
76,table,4502.175,purple,calm,3,78,AAC9DJ81ZXUE7,critical
77,racecar,6300.9,purple,fast,3,79,AAC9DJ81ZXUE7,critical
78,blueberry,6158.2,blue,stale,3,80,AAC9DJ81ZXUE7,critical
79,poop,2437.52,brown,dirty,3,81,AAC9DJ81ZXUE7,critical
80,eggplant,2793.62,purple,hard,3,82,AAC9DJ81ZXUE7,critical
81,ant,3201.025,blue,dead,3,83,AAC9DJ81ZXUE7,critical
82,pig,6610.13,purple,alive,3,84,AAC9DJ81ZXUE7,critical
83,meat,2867.19,purple,stale,3,85,AAC9DJ81ZXUE7,critical
84,grape,6164.35,purple,fresh,3,86,AAC9DJ81ZXUE7,critical
85,soap,3958.665,brown,clean,3,87,AAC9DJ81ZXUE7,critical
86,tears,3687.895,blue,sad,3,88,AAC9DJ81ZXUE7,critical
87,blueberry,5136.765,blue,fresh,3,89,AAC9DJ81ZXUE7,critical
88,cheese,2435.67,blue,tense,3,90,AAC9DJ81ZXUE7,critical
89,james,2461.33,brown,relaxed,3,91,AAC9DJ81ZXUE7,critical
90,slave,5987.145,brown,submissive,3,93,AAC9DJ81ZXUE7,critical
91,dirt,5843.1,brown,cold,3,94,AAC9DJ81ZXUE7,critical
92,bluecheese,3913.97,blue,old,3,95,AAC9DJ81ZXUE7,critical
93,pillow,2999.595,purple,soft,3,96,AAC9DJ81ZXUE7,critical
94,arm,4390.19,purple,cold,3,97,AAC9DJ81ZXUE7,critical
95,egg,2882.24,blue,unripe,3,98,AAC9DJ81ZXUE7,critical
96,tails,3802.66,brown,fast,3,99,AAC9DJ81ZXUE7,critical
97,tree,3863.64,purple,old,3,100,AAC9DJ81ZXUE7,critical
98,bark,3471.265,brown,fresh,3,101,AAC9DJ81ZXUE7,critical
99,martin,4174.55,purple,relaxed,3,102,AAC9DJ81ZXUE7,critical
100,sonic,2245.58,blue,liked,3,103,AAC9DJ81ZXUE7,critical
101,fifi,3253.735,purple,new,3,104,AAC9DJ81ZXUE7,critical
102,shampoo,3357.53,purple,clean,3,105,AAC9DJ81ZXUE7,critical
103,monster,7836.585,purple,disliked,23,1,ALKQPW0O9C98N,critical
104,ghost,4189.205,white,relaxed,23,3,ALKQPW0O9C98N,critical
105,bacteria,17036.225,purple,angry,23,4,ALKQPW0O9C98N,critical
106,eggplant,2962.97,purple,passive,23,5,ALKQPW0O9C98N,critical
107,plum,3137.88,purple,ripe,23,6,ALKQPW0O9C98N,critical
108,gardenia,4180.4,white,fresh,23,7,ALKQPW0O9C98N,critical
109,flame,3096.475,white,hot,23,8,ALKQPW0O9C98N,critical
110,mold,4045.32,green,old,23,9,ALKQPW0O9C98N,critical
111,candle,22091.59,purple,hot,23,10,ALKQPW0O9C98N,critical
112,lilac,4151.425,purple,calm,23,11,ALKQPW0O9C98N,critical
113,slime,3866.8,green,slow,23,12,ALKQPW0O9C98N,critical
114,mold,8728.695,purple,stale,23,13,ALKQPW0O9C98N,critical
115,ball,8542.1,white,liked,23,14,ALKQPW0O9C98N,critical
116,gremlin,6451.035,green,aggressive,23,15,ALKQPW0O9C98N,critical
117,snow,2561.925,white,slow,23,16,ALKQPW0O9C98N,critical
118,leaf,8036.7,green,new,23,17,ALKQPW0O9C98N,critical
119,melon,4878.26,white,unripe,23,18,ALKQPW0O9C98N,critical
120,mountain,6634.88,purple,slow,23,19,ALKQPW0O9C98N,critical
121,beach,4659.41,white,calm,23,20,ALKQPW0O9C98N,critical
122,sheet,4267.96,white,submissive,23,21,ALKQPW0O9C98N,critical
123,toad,6549.02,green,dull,23,22,ALKQPW0O9C98N,critical
124,ball,31919.75,white,happy,23,23,ALKQPW0O9C98N,critical
125,shoes,4409.35,white,new,23,24,ALKQPW0O9C98N,critical
126,slug,5055.78,white,passive,23,25,ALKQPW0O9C98N,critical
127,car,10809.01,white,dull,23,26,ALKQPW0O9C98N,critical
128,tadpole,5944.545,green,happy,23,27,ALKQPW0O9C98N,critical
129,corpse,10943.245,purple,dead,23,28,ALKQPW0O9C98N,critical
130,butterfly,10312.785,purple,alive,23,29,ALKQPW0O9C98N,critical
131,dumpster,4625.495,green,dirty,23,30,ALKQPW0O9C98N,critical
132,basin,13614.735,white,old,23,31,ALKQPW0O9C98N,critical
133,spore,5524.805,green,light,23,32,ALKQPW0O9C98N,critical
134,raisin,12443.145,purple,unripe,23,33,ALKQPW0O9C98N,critical
135,electron,6618.35,green,exciting,23,34,ALKQPW0O9C98N,critical
136,bush,6839.7,green,liked,23,35,ALKQPW0O9C98N,critical
137,albatross,7530.99,white,heavy,23,36,ALKQPW0O9C98N,critical
138,lily,10585.58,white,selfless,23,37,ALKQPW0O9C98N,critical
139,monster,4835.155,purple,jealous,23,38,ALKQPW0O9C98N,critical
140,frog,30361.54,green,dead,23,39,ALKQPW0O9C98N,critical
141,veil,13417.015,white,sad,23,40,ALKQPW0O9C98N,critical
142,mint,2709.025,green,fresh,23,41,ALKQPW0O9C98N,critical
143,hummingbird,7589.18,green,fast,23,42,ALKQPW0O9C98N,critical
144,virus,20572.615,green,angry,23,43,ALKQPW0O9C98N,critical
145,lavender,5311.795,purple,liked,23,44,ALKQPW0O9C98N,critical
146,monster,21266.395,purple,aggressive,23,46,ALKQPW0O9C98N,critical
147,toad,4802.355,green,passive,23,47,ALKQPW0O9C98N,critical
148,towel,11670.205,purple,dirty,23,48,ALKQPW0O9C98N,critical
149,star,3549.33,white,exciting,23,49,ALKQPW0O9C98N,critical
150,towel,6365.42,green,clean,23,50,ALKQPW0O9C98N,critical
151,tomato,6898.735,green,unripe,23,51,ALKQPW0O9C98N,critical
152,car,5737.405,green,heavy,23,52,ALKQPW0O9C98N,critical
153,van,6507.555,purple,heavy,23,53,ALKQPW0O9C98N,critical
154,pants,7418.7,purple,clean,23,54,ALKQPW0O9C98N,critical
155,bruise,12393.145,purple,old,23,55,ALKQPW0O9C98N,critical
156,beanbag,10186.11,green,soft,23,56,ALKQPW0O9C98N,critical
157,ribbon,12500.255,purple,happy,23,57,ALKQPW0O9C98N,critical
158,polish,6856.97,purple,selfless,23,58,ALKQPW0O9C98N,critical
159,comet,4224.675,white,fast,23,59,ALKQPW0O9C98N,critical
160,rug,3424.445,purple,submissive,23,60,ALKQPW0O9C98N,critical
161,burst,9787.305,white,aggressive,23,61,ALKQPW0O9C98N,critical
162,prune,4193.855,purple,hard,23,62,ALKQPW0O9C98N,critical
163,wall,31089.085,purple,dull,23,63,ALKQPW0O9C98N,critical
164,star,9149.99,white,light,23,64,ALKQPW0O9C98N,critical
165,lamp,6445.34,purple,light,23,65,ALKQPW0O9C98N,critical
166,bud,5918.21,purple,new,23,66,ALKQPW0O9C98N,critical
167,grass,4123.93,green,submissive,23,68,ALKQPW0O9C98N,critical
168,fist,2994.1,white,tense,23,69,ALKQPW0O9C98N,critical
169,tree,5814.715,green,selfless,23,70,ALKQPW0O9C98N,critical
170,explosion,14129.87,white,active,23,71,ALKQPW0O9C98N,critical
171,pillow,2737.5,white,soft,23,72,ALKQPW0O9C98N,critical
172,hummingbird,16624.695,purple,active,23,73,ALKQPW0O9C98N,critical
173,lime,9466.455,green,hard,23,74,ALKQPW0O9C98N,critical
174,snow,3832.75,white,cold,23,75,ALKQPW0O9C98N,critical
175,frost,9624.135,white,disliked,23,76,ALKQPW0O9C98N,critical
176,mold,2714.42,green,disliked,23,77,ALKQPW0O9C98N,critical
177,tea,4486.845,green,hot,23,78,ALKQPW0O9C98N,critical
178,sheets,3239.55,white,clean,23,79,ALKQPW0O9C98N,critical
179,lettuce,4672.105,green,sad,23,80,ALKQPW0O9C98N,critical
180,melon,3835.27,white,ripe,23,81,ALKQPW0O9C98N,critical
181,flowers,4672.82,purple,fresh,23,82,ALKQPW0O9C98N,critical
182,eyes,3121.16,green,jealous,23,83,ALKQPW0O9C98N,critical
183,sunrise,12759.295,purple,cold,23,84,ALKQPW0O9C98N,critical
184,moth,3024.84,white,alive,23,85,ALKQPW0O9C98N,critical
185,papaya,3416.45,green,ripe,23,86,ALKQPW0O9C98N,critical
186,muscle,6976.335,purple,tense,23,87,ALKQPW0O9C98N,critical
187,lawn,10869.385,green,calm,23,88,ALKQPW0O9C98N,critical
188,bread,2537.99,white,stale,23,89,ALKQPW0O9C98N,critical
189,fist,5557.45,white,angry,23,90,ALKQPW0O9C98N,critical
190,butterfly,5883.855,purple,fast,23,91,ALKQPW0O9C98N,critical
191,eyeshadow,35075.29,purple,sad,23,92,ALKQPW0O9C98N,critical
192,blanket,14294.935,purple,soft,23,93,ALKQPW0O9C98N,critical
193,sneer,8761.81,white,jealous,23,94,ALKQPW0O9C98N,critical
194,starburst,20756.165,purple,exciting,23,95,ALKQPW0O9C98N,critical
195,kiwi,21202.45,green,tense,23,96,ALKQPW0O9C98N,critical
196,grapes,4084.895,purple,relaxed,23,97,ALKQPW0O9C98N,critical
197,grasshopper,22116.745,green,alive,23,98,ALKQPW0O9C98N,critical
198,mold,3780.43,green,stale,23,99,ALKQPW0O9C98N,critical
199,margarita,11207.015,green,cold,23,100,ALKQPW0O9C98N,critical
200,rug,9236.775,white,dirty,23,101,ALKQPW0O9C98N,critical
201,park,5769.145,green,relaxed,23,102,ALKQPW0O9C98N,critical
202,frisbee,7554.345,green,active,23,103,ALKQPW0O9C98N,critical
203,cadaver,10134.135,white,dead,23,104,ALKQPW0O9C98N,critical
204,ice,3451.71,white,hard,23,105,ALKQPW0O9C98N,critical
205,ocean,4074.045,blue,exciting,2,1,A1CC1ESUM2JWJ2,critical
206,sky,2511.33,blue,happy,2,2,A1CC1ESUM2JWJ2,critical
207,banana,2458.69,yellow,ripe,2,3,A1CC1ESUM2JWJ2,critical
208,tears,3614.835,blue,sad,2,4,A1CC1ESUM2JWJ2,critical
209,bird,3888.215,yellow,happy,2,5,A1CC1ESUM2JWJ2,critical
210,pee,2101.66,yellow,dirty,2,6,A1CC1ESUM2JWJ2,critical
211,salsa,7528.735,red,relaxed,2,7,A1CC1ESUM2JWJ2,critical
212,grapes,6867.63,red,cold,2,9,A1CC1ESUM2JWJ2,critical
213,headache,6821.39,blue,tense,2,10,A1CC1ESUM2JWJ2,critical
214,car,2090.76,red,new,2,11,A1CC1ESUM2JWJ2,critical
215,bee,3800.555,yellow,selfless,2,12,A1CC1ESUM2JWJ2,critical
216,devil,3232.43,red,aggressive,2,13,A1CC1ESUM2JWJ2,critical
217,balloon,8327.47,red,happy,2,14,A1CC1ESUM2JWJ2,critical
218,pimple,3757.155,red,hard,2,15,A1CC1ESUM2JWJ2,critical
219,sneakers,3667.6,yellow,active,2,16,A1CC1ESUM2JWJ2,critical
220,scar,3326.1,red,dull,2,17,A1CC1ESUM2JWJ2,critical
221,pillow,2743.21,yellow,soft,2,18,A1CC1ESUM2JWJ2,critical
222,cut,3023,red,angry,2,19,A1CC1ESUM2JWJ2,critical
223,nurse,3498.275,red,selfless,2,20,A1CC1ESUM2JWJ2,critical
224,chip,2962.15,yellow,stale,2,21,A1CC1ESUM2JWJ2,critical
225,nun,6713.19,blue,submissive,2,22,A1CC1ESUM2JWJ2,critical
226,sunset,3107.38,yellow,calm,2,23,A1CC1ESUM2JWJ2,critical
227,redlight,3384.13,red,light,2,24,A1CC1ESUM2JWJ2,critical
228,sunset,4338.63,red,calm,2,25,A1CC1ESUM2JWJ2,critical
229,sun,2746.905,yellow,angry,2,26,A1CC1ESUM2JWJ2,critical
230,car,3223.815,blue,new,2,27,A1CC1ESUM2JWJ2,critical
231,whale,3131.02,blue,heavy,2,28,A1CC1ESUM2JWJ2,critical
232,knife,5610.285,blue,dull,2,29,A1CC1ESUM2JWJ2,critical
233,shark,7125.63,blue,aggressive,2,30,A1CC1ESUM2JWJ2,critical
234,pillow,3030.925,red,soft,2,31,A1CC1ESUM2JWJ2,critical
235,friends,2830.65,yellow,liked,2,32,A1CC1ESUM2JWJ2,critical
236,table,3772.865,yellow,clean,2,33,A1CC1ESUM2JWJ2,critical
237,shark,5211.99,blue,angry,2,34,A1CC1ESUM2JWJ2,critical
238,waves,3187.335,blue,disliked,2,35,A1CC1ESUM2JWJ2,critical
239,house,6423.925,red,clean,2,36,A1CC1ESUM2JWJ2,critical
240,trip,2615.735,yellow,exciting,2,37,A1CC1ESUM2JWJ2,critical
241,wife,2225.095,red,submissive,2,38,A1CC1ESUM2JWJ2,critical
242,sky,5480.595,blue,alive,2,39,A1CC1ESUM2JWJ2,critical
243,ice,2116.89,blue,cold,2,40,A1CC1ESUM2JWJ2,critical
244,necklace,4321.975,blue,old,2,41,A1CC1ESUM2JWJ2,critical
245,bee,3639.56,yellow,aggressive,2,42,A1CC1ESUM2JWJ2,critical
246,shoes,2249.245,red,dirty,2,43,A1CC1ESUM2JWJ2,critical
247,sunset,5094.05,red,exciting,2,44,A1CC1ESUM2JWJ2,critical
248,car,2389.205,red,fast,2,45,A1CC1ESUM2JWJ2,critical
249,lightbulb,5971.895,blue,light,2,46,A1CC1ESUM2JWJ2,critical
250,blanket,3260.945,blue,soft,2,47,A1CC1ESUM2JWJ2,critical
251,blueberries,4835.43,blue,unripe,2,48,A1CC1ESUM2JWJ2,critical
252,popcorn,7628.64,red,stale,2,49,A1CC1ESUM2JWJ2,critical
253,ocean,2274.11,blue,calm,2,50,A1CC1ESUM2JWJ2,critical
254,hat,4474.095,blue,dirty,2,51,A1CC1ESUM2JWJ2,critical
255,strawberry,4578.705,red,liked,2,52,A1CC1ESUM2JWJ2,critical
256,fish,3000.75,yellow,fresh,2,53,A1CC1ESUM2JWJ2,critical
257,snow,2141.3,blue,slow,2,54,A1CC1ESUM2JWJ2,critical
258,blueberry,6402.835,blue,ripe,2,55,A1CC1ESUM2JWJ2,critical
259,tennis,5648.565,yellow,tense,2,56,A1CC1ESUM2JWJ2,critical
260,blood,2600.08,red,dead,2,57,A1CC1ESUM2JWJ2,critical
261,sneakers,4039.755,red,active,2,58,A1CC1ESUM2JWJ2,critical
262,jeans,2853.11,blue,jealous,2,59,A1CC1ESUM2JWJ2,critical
263,friends,2708.825,blue,selfless,2,60,A1CC1ESUM2JWJ2,critical
264,body,4487.405,blue,dead,2,61,A1CC1ESUM2JWJ2,critical
265,paper,4214.7,yellow,passive,2,62,A1CC1ESUM2JWJ2,critical
266,crying,3123.19,yellow,sad,2,63,A1CC1ESUM2JWJ2,critical
267,wallpaper,3257.1,yellow,old,2,64,A1CC1ESUM2JWJ2,critical
268,meditation,4488.9,blue,relaxed,2,65,A1CC1ESUM2JWJ2,critical
269,sky,4284.425,blue,liked,2,66,A1CC1ESUM2JWJ2,critical
270,old,2953.33,yellow,disliked,2,67,A1CC1ESUM2JWJ2,critical
271,snow,5117.85,blue,passive,2,69,A1CC1ESUM2JWJ2,critical
272,car,1968.21,blue,fast,2,70,A1CC1ESUM2JWJ2,critical
273,stress,3073,red,tense,2,71,A1CC1ESUM2JWJ2,critical
274,ice,2379.305,blue,hard,2,73,A1CC1ESUM2JWJ2,critical
275,apples,5057.28,red,unripe,2,74,A1CC1ESUM2JWJ2,critical
276,sunrise,5937.65,yellow,slow,2,75,A1CC1ESUM2JWJ2,critical
277,paper,2413.34,yellow,dull,2,76,A1CC1ESUM2JWJ2,critical
278,running,3074.635,blue,active,2,77,A1CC1ESUM2JWJ2,critical
279,eyes,2846.935,red,sad,2,78,A1CC1ESUM2JWJ2,critical
280,papaya,9312.105,yellow,unripe,2,79,A1CC1ESUM2JWJ2,critical
281,jewelry,9078.875,red,old,2,80,A1CC1ESUM2JWJ2,critical
282,fire,1934.83,red,hot,2,81,A1CC1ESUM2JWJ2,critical
283,car,2373.16,yellow,new,2,82,A1CC1ESUM2JWJ2,critical
284,cheeks,3521.82,red,jealous,2,83,A1CC1ESUM2JWJ2,critical
285,fire,2664.675,blue,hot,2,84,A1CC1ESUM2JWJ2,critical
286,strawberry,6182.415,red,ripe,2,85,A1CC1ESUM2JWJ2,critical
287,body,2330.245,yellow,dead,2,86,A1CC1ESUM2JWJ2,critical
288,mirror,3445.145,blue,clean,2,87,A1CC1ESUM2JWJ2,critical
289,sky,3064.26,yellow,light,2,88,A1CC1ESUM2JWJ2,critical
290,cheetah,4787.64,yellow,fast,2,89,A1CC1ESUM2JWJ2,critical
291,chips,2578.97,blue,stale,2,90,A1CC1ESUM2JWJ2,critical
292,cat,3959.7,yellow,alive,2,91,A1CC1ESUM2JWJ2,critical
293,bowling ball,4761.485,red,heavy,2,92,A1CC1ESUM2JWJ2,critical
294,fire,2331.615,yellow,hot,2,93,A1CC1ESUM2JWJ2,critical
295,berries,5395.87,red,fresh,2,94,A1CC1ESUM2JWJ2,critical
296,sting,3260.35,red,disliked,2,95,A1CC1ESUM2JWJ2,critical
297,fish,2877.87,blue,fresh,2,96,A1CC1ESUM2JWJ2,critical
298,ice cream,5632.505,yellow,cold,2,97,A1CC1ESUM2JWJ2,critical
299,rock,2474.24,yellow,hard,2,98,A1CC1ESUM2JWJ2,critical
300,nap,4045.935,yellow,relaxed,2,99,A1CC1ESUM2JWJ2,critical
301,flower,4813.95,red,alive,2,100,A1CC1ESUM2JWJ2,critical
302,rocky,3669.45,yellow,heavy,2,101,A1CC1ESUM2JWJ2,critical
303,vacation,6077.255,yellow,jealous,2,102,A1CC1ESUM2JWJ2,critical
304,wife,2599.52,yellow,submissive,2,103,A1CC1ESUM2JWJ2,critical
305,lava,3422.18,red,slow,2,104,A1CC1ESUM2JWJ2,critical
306,games,6377.605,red,passive,2,105,A1CC1ESUM2JWJ2,critical
307,Venom,15254.395,black,selfless,26,1,AVCOBHDVXZOZL,critical
308,Bear,7187.74,brown,relaxed,26,2,AVCOBHDVXZOZL,critical
309,tar,19198.165,black,passive,26,3,AVCOBHDVXZOZL,critical
310,jeans,4905.025,blue,new,26,4,AVCOBHDVXZOZL,critical
311,bag,5400.155,brown,light,26,5,AVCOBHDVXZOZL,critical
312,dog,8862.47,brown,selfless,26,6,AVCOBHDVXZOZL,critical
313,cat,4996.98,black,relaxed,26,7,AVCOBHDVXZOZL,critical
314,backpack,9004.855,black,light,26,8,AVCOBHDVXZOZL,critical
315,blackberry,50940.98,black,unripe,26,9,AVCOBHDVXZOZL,critical
316,bear,17302.7,brown,angry,26,10,AVCOBHDVXZOZL,critical
317,sand,10131.02,brown,hot,26,11,AVCOBHDVXZOZL,critical
318,coconut,11993.575,brown,ripe,26,12,AVCOBHDVXZOZL,critical
319,Mr.meeseeks,60031.145,blue,sad,26,13,AVCOBHDVXZOZL,critical
320,ocean,23680.12,blue,angry,26,14,AVCOBHDVXZOZL,critical
321,ball,61691.975,blue,slow,26,15,AVCOBHDVXZOZL,critical
322,cat,10710.34,black,soft,26,16,AVCOBHDVXZOZL,critical
323,couch,4352.82,brown,new,26,17,AVCOBHDVXZOZL,critical
324,dog,5781.335,black,active,26,18,AVCOBHDVXZOZL,critical
325,pillow,8316.125,brown,soft,26,19,AVCOBHDVXZOZL,critical
326,bird,4940.965,blue,happy,26,20,AVCOBHDVXZOZL,critical
327,table,4265.235,blue,hard,26,21,AVCOBHDVXZOZL,critical
328,refrigerator ,12321.055,black,cold,26,22,AVCOBHDVXZOZL,critical
329,blanket,6086.46,blue,soft,26,23,AVCOBHDVXZOZL,critical
330,bear,7111.33,brown,aggressive,26,24,AVCOBHDVXZOZL,critical
331,bedsheets,17259.11,black,fresh,26,25,AVCOBHDVXZOZL,critical
332,race-car,29091.32,black,slow,26,26,AVCOBHDVXZOZL,critical
333,waffles,83027.385,blue,stale,26,27,AVCOBHDVXZOZL,critical
334,dog,15104.69,brown,jealous,26,28,AVCOBHDVXZOZL,critical
335,cat,12592.35,brown,active,26,29,AVCOBHDVXZOZL,critical
336,bird,6492.84,blue,jealous,26,30,AVCOBHDVXZOZL,critical
337,hamster,11149.4,black,tense,26,31,AVCOBHDVXZOZL,critical
338,blueberry,14142.34,blue,unripe,26,33,AVCOBHDVXZOZL,critical
339,bluebird,12162.225,blue,exciting,26,34,AVCOBHDVXZOZL,critical
340,panda,16101.455,black,sad,26,35,AVCOBHDVXZOZL,critical
341,gerbil ,11357.095,black,calm,26,36,AVCOBHDVXZOZL,critical
342,cat,11873.265,black,angry,26,37,AVCOBHDVXZOZL,critical
343,bird,10209.2,blue,dead,26,38,AVCOBHDVXZOZL,critical
344,cat,6907.555,black,exciting,26,39,AVCOBHDVXZOZL,critical
345,bird,4849.23,blue,old,26,40,AVCOBHDVXZOZL,critical
346,fish,5990.265,blue,fresh,26,41,AVCOBHDVXZOZL,critical
347,bear,6726.87,brown,heavy,26,42,AVCOBHDVXZOZL,critical
348,dog,8383.695,brown,exciting,26,43,AVCOBHDVXZOZL,critical
349,bannana,36385.25,brown,unripe,26,44,AVCOBHDVXZOZL,critical
350,blanket,9200.445,brown,clean,26,46,AVCOBHDVXZOZL,critical
351,cup,7731.895,brown,dirty,26,47,AVCOBHDVXZOZL,critical
352,dog,9144.765,brown,liked,26,48,AVCOBHDVXZOZL,critical
353,bird,9182.66,blue,tense,26,49,AVCOBHDVXZOZL,critical
354,chair,8771.605,black,dull,26,50,AVCOBHDVXZOZL,critical
355,shirt,8091.465,black,dirty,26,51,AVCOBHDVXZOZL,critical
356,socks,7662.255,blue,dull,26,52,AVCOBHDVXZOZL,critical
357,sonic,7291.38,blue,fast,26,53,AVCOBHDVXZOZL,critical
358,sofa,9373.325,black,heavy,26,54,AVCOBHDVXZOZL,critical
359,bbq,10275.255,black,hot,26,55,AVCOBHDVXZOZL,critical
360,cat,10206.87,brown,sad,26,56,AVCOBHDVXZOZL,critical
361,icepack,24873.36,blue,cold,26,57,AVCOBHDVXZOZL,critical
362,bird,14293.815,blue,aggressive,26,58,AVCOBHDVXZOZL,critical
363,fish,5557.85,blue,alive,26,59,AVCOBHDVXZOZL,critical
364,bird,6566.065,blue,relaxed,26,60,AVCOBHDVXZOZL,critical
365,bear,6447.12,brown,tense,26,61,AVCOBHDVXZOZL,critical
366,bird,5706.675,blue,submissive,26,62,AVCOBHDVXZOZL,critical
367,pants,5654.73,blue,dirty,26,63,AVCOBHDVXZOZL,critical
368,cat,4058.29,black,jealous,26,64,AVCOBHDVXZOZL,critical
369,sweater,9703.105,black,old,26,65,AVCOBHDVXZOZL,critical
370,dog,7075.055,black,happy,26,66,AVCOBHDVXZOZL,critical
371,rabbit,13405.87,brown,fast,26,67,AVCOBHDVXZOZL,critical
372,cat,3926.34,black,submissive,26,68,AVCOBHDVXZOZL,critical
373,panthar,9193.18,black,aggressive,26,69,AVCOBHDVXZOZL,critical
374,hamster,9378.295,brown,passive,26,70,AVCOBHDVXZOZL,critical
375,couch,9488.765,black,stale,26,71,AVCOBHDVXZOZL,critical
376,carpet,6774.4,brown,stale,26,72,AVCOBHDVXZOZL,critical
377,dog,7065.21,brown,submissive,26,73,AVCOBHDVXZOZL,critical
378,cat,9675.265,brown,alive,26,74,AVCOBHDVXZOZL,critical
379,snail,6465.96,brown,slow,26,75,AVCOBHDVXZOZL,critical
380,coal,9968.955,black,hard,26,76,AVCOBHDVXZOZL,critical
381,bird,4794.46,blue,calm,26,77,AVCOBHDVXZOZL,critical
382,OCEAN,50686.535,blue,selfless,26,78,AVCOBHDVXZOZL,critical
383,dog,5719.245,black,alive,26,79,AVCOBHDVXZOZL,critical
384,bird,5072.065,blue,liked,26,81,AVCOBHDVXZOZL,critical
385,tarp,11083.695,blue,hot,26,82,AVCOBHDVXZOZL,critical
386,car,16241.61,blue,heavy,26,83,AVCOBHDVXZOZL,critical
387,beetle,10811.655,black,dead,26,84,AVCOBHDVXZOZL,critical
388,towel,5809.545,blue,clean,26,85,AVCOBHDVXZOZL,critical
389,car,77041.255,black,fast,26,86,AVCOBHDVXZOZL,critical
390,deer,4378.605,brown,dead,26,87,AVCOBHDVXZOZL,critical
391,bird,7977.105,blue,active,26,88,AVCOBHDVXZOZL,critical
392,shirt,12535.705,black,liked,26,89,AVCOBHDVXZOZL,critical
393,bird,11444.585,blue,passive,26,90,AVCOBHDVXZOZL,critical
394,blueberry,6943.935,blue,ripe,26,91,AVCOBHDVXZOZL,critical
395,jacket,8454.655,black,clean,26,92,AVCOBHDVXZOZL,critical
396,blackberry,8425.78,black,ripe,26,93,AVCOBHDVXZOZL,critical
397,coat,4377.42,brown,old,26,94,AVCOBHDVXZOZL,critical
398,dresser,7308.28,blue,disliked,26,95,AVCOBHDVXZOZL,critical
399,desk,7056.525,brown,hard,26,96,AVCOBHDVXZOZL,critical
400,cat,3947.905,brown,happy,26,97,AVCOBHDVXZOZL,critical
401,feather,58375.37,blue,light,26,98,AVCOBHDVXZOZL,critical
402,paper bag,13899.305,brown,dull,26,99,AVCOBHDVXZOZL,critical
403,bottle,43561.485,brown,cold,26,100,AVCOBHDVXZOZL,critical
404,bread,5874.65,brown,fresh,26,101,AVCOBHDVXZOZL,critical
405,tar,10175.965,black,disliked,26,102,AVCOBHDVXZOZL,critical
406,phone,7184.065,black,new,26,103,AVCOBHDVXZOZL,critical
407,cat,4701.555,brown,calm,26,104,AVCOBHDVXZOZL,critical
408,chair,8133.635,brown,disliked,26,105,AVCOBHDVXZOZL,critical
409,chicken,20056,yellow,tense,8,1,A157L6Z8QU3SDE,critical
410,pac-man,22199,yellow,liked,8,2,A157L6Z8QU3SDE,critical
411,grape,33053,purple,sad,8,3,A157L6Z8QU3SDE,critical
412,goku,14612,orange,selfless,8,4,A157L6Z8QU3SDE,critical
413,pepper,8146,orange,unripe,8,5,A157L6Z8QU3SDE,critical
414,pizza,4947,yellow,hot,8,6,A157L6Z8QU3SDE,critical
415,ball,12468,orange,dull,8,7,A157L6Z8QU3SDE,critical
416,grimace,43370,purple,slow,8,8,A157L6Z8QU3SDE,critical
417,Naruto,31626,orange,jealous,8,9,A157L6Z8QU3SDE,critical
418,Barney,5991,purple,happy,8,10,A157L6Z8QU3SDE,critical
419,flower,50219,purple,calm,8,11,A157L6Z8QU3SDE,critical
420,orangutan,29151,orange,old,8,12,A157L6Z8QU3SDE,critical
421,rock,8776,orange,hard,8,13,A157L6Z8QU3SDE,critical
422,count,6087,purple,angry,8,14,A157L6Z8QU3SDE,critical
423,orange,11167,orange,sad,8,15,A157L6Z8QU3SDE,critical
424,spaghetti,6516,orange,hot,8,16,A157L6Z8QU3SDE,critical
425,puppy,18920,orange,submissive,8,17,A157L6Z8QU3SDE,critical
426,oompa-loompa,22375,orange,slow,8,18,A157L6Z8QU3SDE,critical
427,Ranger,24780,yellow,selfless,8,19,A157L6Z8QU3SDE,critical
428,garbage,9037,purple,dirty,8,20,A157L6Z8QU3SDE,critical
429,pepper,6470,orange,ripe,8,21,A157L6Z8QU3SDE,critical
430,count,7311,purple,tense,8,22,A157L6Z8QU3SDE,critical
431,lorax,13969,orange,passive,8,23,A157L6Z8QU3SDE,critical
432,clay,12006,purple,hard,8,24,A157L6Z8QU3SDE,critical
433,soap,7865,purple,clean,8,25,A157L6Z8QU3SDE,critical
434,sun,8702,orange,liked,8,26,A157L6Z8QU3SDE,critical
435,chick,7698,yellow,soft,8,27,A157L6Z8QU3SDE,critical
436,dog,19930,yellow,jealous,8,28,A157L6Z8QU3SDE,critical
437,monkey,6878,orange,angry,8,29,A157L6Z8QU3SDE,critical
438,fish,6636,purple,jealous,8,30,A157L6Z8QU3SDE,critical
439,skateboard,35352,orange,exciting,8,31,A157L6Z8QU3SDE,critical
440,truck,5364,yellow,heavy,8,32,A157L6Z8QU3SDE,critical
441,snow,6917,yellow,cold,8,33,A157L6Z8QU3SDE,critical
442,taro,5985,purple,hot,8,34,A157L6Z8QU3SDE,critical
443,cone,9374,orange,dirty,8,35,A157L6Z8QU3SDE,critical
444,guard,7775,orange,relaxed,8,36,A157L6Z8QU3SDE,critical
445,trump,4823,orange,disliked,8,37,A157L6Z8QU3SDE,critical
446,paint,9940,purple,dull,8,38,A157L6Z8QU3SDE,critical
447,trump,10620,orange,aggressive,8,39,A157L6Z8QU3SDE,critical
448,grape,5979,purple,ripe,8,40,A157L6Z8QU3SDE,critical
449,soda,6410,orange,stale,8,41,A157L6Z8QU3SDE,critical
450,sulfur,6663,yellow,active,8,42,A157L6Z8QU3SDE,critical
451,tea,9502,purple,liked,8,43,A157L6Z8QU3SDE,critical
452,dress,7110,purple,submissive,8,44,A157L6Z8QU3SDE,critical
453,car,5872,yellow,fast,8,45,A157L6Z8QU3SDE,critical
454,cake,9223,yellow,stale,8,46,A157L6Z8QU3SDE,critical
455,bird,4867,yellow,alive,8,47,A157L6Z8QU3SDE,critical
456,bug,17822,yellow,dead,8,48,A157L6Z8QU3SDE,critical
457,flower,21909,yellow,passive,8,49,A157L6Z8QU3SDE,critical
458,engine,16712,purple,active,8,50,A157L6Z8QU3SDE,critical
459,juice,5981,orange,cold,8,51,A157L6Z8QU3SDE,critical
460,comforter,6158,purple,old,8,52,A157L6Z8QU3SDE,critical
461,mascot,13306,purple,selfless,8,53,A157L6Z8QU3SDE,critical
462,pop,14379,purple,cold,8,54,A157L6Z8QU3SDE,critical
463,plantain,9167,yellow,unripe,8,55,A157L6Z8QU3SDE,critical
464,asian,6988,yellow,submissive,8,56,A157L6Z8QU3SDE,critical
465,officer,8983,orange,calm,8,57,A157L6Z8QU3SDE,critical
466,shoes,12255,yellow,new,8,58,A157L6Z8QU3SDE,critical
467,skirt,5991,yellow,aggressive,8,59,A157L6Z8QU3SDE,critical
468,sheets,5247,purple,soft,8,60,A157L6Z8QU3SDE,critical
469,squash,19802,yellow,disliked,8,61,A157L6Z8QU3SDE,critical
470,bed,3619,purple,heavy,8,62,A157L6Z8QU3SDE,critical
471,pac-man,24045,yellow,happy,8,63,A157L6Z8QU3SDE,critical
472,pillow,12897,orange,soft,8,64,A157L6Z8QU3SDE,critical
473,socks,4065,yellow,dirty,8,65,A157L6Z8QU3SDE,critical
474,boruto,22696,orange,happy,8,66,A157L6Z8QU3SDE,critical
475,nami,9757,orange,active,8,67,A157L6Z8QU3SDE,critical
476,mushroom,18655,purple,disliked,8,68,A157L6Z8QU3SDE,critical
477,house,12842,purple,new,8,69,A157L6Z8QU3SDE,critical
478,slide,5250,purple,exciting,8,70,A157L6Z8QU3SDE,critical
479,lion,6048,orange,tense,8,71,A157L6Z8QU3SDE,critical
480,detergant,19448,yellow,clean,8,72,A157L6Z8QU3SDE,critical
481,led ,7922,purple,light,8,73,A157L6Z8QU3SDE,critical
482,curtains,6926,yellow,dull,8,74,A157L6Z8QU3SDE,critical
483,giraffe,12309,purple,passive,8,75,A157L6Z8QU3SDE,critical
484,corpse,6526,purple,dead,8,76,A157L6Z8QU3SDE,critical
485,medicine,16674,orange,light,8,77,A157L6Z8QU3SDE,critical
486,Mufasa,49501,orange,dead,8,78,A157L6Z8QU3SDE,critical
487,Bus,7227,yellow,slow,8,79,A157L6Z8QU3SDE,critical
488,fish,16607,purple,aggressive,8,80,A157L6Z8QU3SDE,critical
489,banana,5017,yellow,ripe,8,81,A157L6Z8QU3SDE,critical
490,eggplant,5412,purple,fresh,8,82,A157L6Z8QU3SDE,critical
491,book,18209,orange,new,8,83,A157L6Z8QU3SDE,critical
492,juice,7016,orange,fresh,8,85,A157L6Z8QU3SDE,critical
493,plane,19081,purple,fast,8,86,A157L6Z8QU3SDE,critical
494,butterfly,20699,purple,alive,8,87,A157L6Z8QU3SDE,critical
495,cleaner,23405,orange,clean,8,88,A157L6Z8QU3SDE,critical
496,tractor ,17093,yellow,hard,8,89,A157L6Z8QU3SDE,critical
497,raisen,31830,purple,unripe,8,90,A157L6Z8QU3SDE,critical
498,lemon,15358,yellow,fresh,8,92,A157L6Z8QU3SDE,critical
499,soda,11721,purple,stale,8,93,A157L6Z8QU3SDE,critical
500,leaf,16439,yellow,old,8,94,A157L6Z8QU3SDE,critical
501,sun,7913,yellow,angry,8,95,A157L6Z8QU3SDE,critical
502,submarine,25673,yellow,exciting,8,96,A157L6Z8QU3SDE,critical
503,building,25885,orange,heavy,8,97,A157L6Z8QU3SDE,critical
504,bird,10194,yellow,light,8,98,A157L6Z8QU3SDE,critical
505,sofa,17670,yellow,relaxed,8,100,A157L6Z8QU3SDE,critical
506,snake,30038,orange,alive,8,101,A157L6Z8QU3SDE,critical
507,lab,20223,yellow,calm,8,102,A157L6Z8QU3SDE,critical
508,Sanji,51374,yellow,sad,8,103,A157L6Z8QU3SDE,critical
509,Goten,9993,orange,fast,8,104,A157L6Z8QU3SDE,critical
510,Fang,24873,purple,relaxed,8,105,A157L6Z8QU3SDE,critical
511,lightning,22234.975,white,tense,4,1,A27VFM67RPD2L5,critical
512,couch,7324.53,orange,old,4,2,A27VFM67RPD2L5,critical
513,sky,5488.01,blue,calm,4,3,A27VFM67RPD2L5,critical
514,antique,26097.565,orange,liked,4,4,A27VFM67RPD2L5,critical
515,lounger,11436.995,orange,relaxed,4,5,A27VFM67RPD2L5,critical
516,bulldozer,21563.96,orange,heavy,4,6,A27VFM67RPD2L5,critical
517,sheets,12981.04,white,clean,4,7,A27VFM67RPD2L5,critical
518,gelatin,12437.66,orange,light,4,8,A27VFM67RPD2L5,critical
519,cloud,5874.26,white,happy,4,9,A27VFM67RPD2L5,critical
520,electricity,9174.54,blue,alive,4,10,A27VFM67RPD2L5,critical
521,feather,6477.41,blue,light,4,11,A27VFM67RPD2L5,critical
522,corpse,7066.44,blue,dead,4,12,A27VFM67RPD2L5,critical
523,police,10760.68,blue,tense,4,13,A27VFM67RPD2L5,critical
524,water,4971.875,blue,relaxed,4,15,A27VFM67RPD2L5,critical
525,car,16207.665,blue,slow,4,16,A27VFM67RPD2L5,critical
526,dove,10175.305,white,active,4,17,A27VFM67RPD2L5,critical
527,sherbet,14901.56,orange,happy,4,18,A27VFM67RPD2L5,critical
528,grape,17512.495,white,ripe,4,19,A27VFM67RPD2L5,critical
529,beard,4156.365,white,old,4,20,A27VFM67RPD2L5,critical
530,bird,7563.19,blue,passive,4,21,A27VFM67RPD2L5,critical
531,cream,4829.255,white,liked,4,22,A27VFM67RPD2L5,critical
532,depression,6583.12,blue,sad,4,23,A27VFM67RPD2L5,critical
533,snowstorm,10358.13,white,exciting,4,24,A27VFM67RPD2L5,critical
534,ice,4018.27,white,hard,4,25,A27VFM67RPD2L5,critical
535,cup,7821.61,orange,new,4,26,A27VFM67RPD2L5,critical
536,flurries,6149.875,white,fast,4,27,A27VFM67RPD2L5,critical
537,snow,5058.425,white,soft,4,28,A27VFM67RPD2L5,critical
538,comforter,7670.535,blue,fresh,4,29,A27VFM67RPD2L5,critical
539,bread,4069.82,white,stale,4,30,A27VFM67RPD2L5,critical
540,car,11255.765,blue,dirty,4,31,A27VFM67RPD2L5,critical
541,smurf,18630.615,blue,selfless,4,32,A27VFM67RPD2L5,critical
542,heat,6201.29,white,jealous,4,33,A27VFM67RPD2L5,critical
543,tabby,14150.255,orange,submissive,4,34,A27VFM67RPD2L5,critical
544,rapids,8699.145,blue,active,4,35,A27VFM67RPD2L5,critical
545,trump,21458.505,orange,sad,4,36,A27VFM67RPD2L5,critical
546,flame,6315.92,blue,hot,4,37,A27VFM67RPD2L5,critical
547,mold,7815.575,blue,stale,4,38,A27VFM67RPD2L5,critical
548,peel,4643.655,orange,stale,4,39,A27VFM67RPD2L5,critical
549,toothpaste,6251.755,white,fresh,4,40,A27VFM67RPD2L5,critical
550,fire,19270.315,orange,exciting,4,41,A27VFM67RPD2L5,critical
551,cotton,13474.685,white,passive,4,42,A27VFM67RPD2L5,critical
552,beetle,6136.23,blue,fast,4,43,A27VFM67RPD2L5,critical
553,pool,10760.785,blue,clean,4,44,A27VFM67RPD2L5,critical
554,kitten,18528.75,white,alive,4,45,A27VFM67RPD2L5,critical
555,cushion,5424.665,blue,soft,4,46,A27VFM67RPD2L5,critical
556,shark,9026.035,blue,aggressive,4,48,A27VFM67RPD2L5,critical
557,tiger,7439.51,orange,fast,4,49,A27VFM67RPD2L5,critical
558,field,17970,white,calm,4,50,A27VFM67RPD2L5,critical
559,thunder,10044.35,blue,exciting,4,51,A27VFM67RPD2L5,critical
560,rage,44374.225,orange,jealous,4,52,A27VFM67RPD2L5,critical
561,smock,9866.53,white,dirty,4,53,A27VFM67RPD2L5,critical
562,snow,6962.99,white,cold,4,54,A27VFM67RPD2L5,critical
563,tiger,10724,orange,aggressive,4,55,A27VFM67RPD2L5,critical
564,stone,5183.175,white,heavy,4,56,A27VFM67RPD2L5,critical
565,pallor,6123.79,white,dead,4,57,A27VFM67RPD2L5,critical
566,angel,4110.025,white,selfless,4,58,A27VFM67RPD2L5,critical
567,counter,6099.99,orange,clean,4,59,A27VFM67RPD2L5,critical
568,supremacist,13616.59,white,disliked,4,60,A27VFM67RPD2L5,critical
569,peach,8906.3,white,unripe,4,61,A27VFM67RPD2L5,critical
570,poison,7598.98,blue,disliked,4,62,A27VFM67RPD2L5,critical
571,burn,11001.84,orange,dead,4,63,A27VFM67RPD2L5,critical
572,berry,5037.065,blue,ripe,4,64,A27VFM67RPD2L5,critical
573,paint,15822.825,white,dull,4,65,A27VFM67RPD2L5,critical
574,swallow,25711.795,blue,submissive,4,66,A27VFM67RPD2L5,critical
575,puppy,12432.575,white,sad,4,67,A27VFM67RPD2L5,critical
576,finish,6611.65,orange,dull,4,68,A27VFM67RPD2L5,critical
577,president,15921.735,orange,disliked,4,69,A27VFM67RPD2L5,critical
578,snail,6789.48,orange,slow,4,70,A27VFM67RPD2L5,critical
579,bed,5034.94,white,relaxed,4,71,A27VFM67RPD2L5,critical
580,pigeon,6178.435,blue,liked,4,72,A27VFM67RPD2L5,critical
581,troll,5055.645,orange,angry,4,73,A27VFM67RPD2L5,critical
582,worm,5065.295,white,slow,4,74,A27VFM67RPD2L5,critical
583,rock,10047.48,blue,dull,4,75,A27VFM67RPD2L5,critical
584,sapphire,6241.64,blue,happy,4,76,A27VFM67RPD2L5,critical
585,incel,13785.76,blue,jealous,4,77,A27VFM67RPD2L5,critical
586,snowcone,8641.54,orange,cold,4,78,A27VFM67RPD2L5,critical
587,fox,17062.93,orange,alive,4,79,A27VFM67RPD2L5,critical
588,fruit,6585.96,orange,unripe,4,80,A27VFM67RPD2L5,critical
589,tangerine,6567.8,orange,ripe,4,81,A27VFM67RPD2L5,critical
590,pipe,13360.83,blue,hard,4,82,A27VFM67RPD2L5,critical
591,frostbite,19229.41,blue,cold,4,83,A27VFM67RPD2L5,critical
592,fire,7227.48,white,hot,4,84,A27VFM67RPD2L5,critical
593,brick,4240.08,orange,hard,4,85,A27VFM67RPD2L5,critical
594,stone,5422.765,blue,heavy,4,86,A27VFM67RPD2L5,critical
595,mango,10549.28,orange,calm,4,88,A27VFM67RPD2L5,critical
596,grape,13120.03,blue,unripe,4,89,A27VFM67RPD2L5,critical
597,race,18046.515,orange,active,4,90,A27VFM67RPD2L5,critical
598,guard,26198.44,orange,selfless,4,91,A27VFM67RPD2L5,critical
599,home,5403.885,white,new,4,92,A27VFM67RPD2L5,critical
600,bear,22754.71,white,aggressive,4,93,A27VFM67RPD2L5,critical
601,flame,4722.505,orange,hot,4,94,A27VFM67RPD2L5,critical
602,shirt,7509.155,orange,dirty,4,95,A27VFM67RPD2L5,critical
603,dress,5833.33,blue,old,4,96,A27VFM67RPD2L5,critical
604,ire,10658.255,blue,angry,4,97,A27VFM67RPD2L5,critical
605,pillow,4458.17,orange,soft,4,98,A27VFM67RPD2L5,critical
606,parrot,14290.275,orange,passive,4,99,A27VFM67RPD2L5,critical
607,ring,5775.07,blue,new,4,100,A27VFM67RPD2L5,critical
608,heat,7156.465,white,angry,4,101,A27VFM67RPD2L5,critical
609,checkpoint,15179.52,orange,tense,4,102,A27VFM67RPD2L5,critical
610,dust,10602.29,white,light,4,103,A27VFM67RPD2L5,critical
611,peach,9491.855,orange,fresh,4,104,A27VFM67RPD2L5,critical
612,cloud,7830.67,white,submissive,4,105,A27VFM67RPD2L5,critical
613,whale,26265.875,blue,selfless,10,1,A1IS0218RVG60K,critical
614,spider,27180.73,red,dead,10,2,A1IS0218RVG60K,critical
615,starfish,36528.74,red,selfless,10,3,A1IS0218RVG60K,critical
616,marble,8206.26,blue,hard,10,4,A1IS0218RVG60K,critical
617,couch,4354.33,red,old,10,5,A1IS0218RVG60K,critical
618,squirrel,16955.12,brown,selfless,10,6,A1IS0218RVG60K,critical
619,berry,8974.27,blue,unripe,10,7,A1IS0218RVG60K,critical
620,shirt,5138.14,blue,new,10,8,A1IS0218RVG60K,critical
621,car,5976.755,blue,dirty,10,9,A1IS0218RVG60K,critical
622,chair,3689.96,brown,liked,10,10,A1IS0218RVG60K,critical
623,cereal,5598.435,red,stale,10,11,A1IS0218RVG60K,critical
624,worm,3882.565,red,alive,10,12,A1IS0218RVG60K,critical
625,fireworks,16692.215,red,exciting,10,13,A1IS0218RVG60K,critical
626,kiwi,13981.75,brown,unripe,10,14,A1IS0218RVG60K,critical
627,spoon,8760.645,red,dull,10,15,A1IS0218RVG60K,critical
628,sky,4286.89,blue,clean,10,16,A1IS0218RVG60K,critical
629,water,3678.21,brown,sad,10,17,A1IS0218RVG60K,critical
630,dolphin,4666.405,blue,sad,10,18,A1IS0218RVG60K,critical
631,bear,3818.165,brown,relaxed,10,19,A1IS0218RVG60K,critical
632,mouse,84475.275,brown,happy,10,20,A1IS0218RVG60K,critical
633,cotton,7155.575,blue,light,10,21,A1IS0218RVG60K,critical
634,fish,7934.985,red,passive,10,22,A1IS0218RVG60K,critical
635,grizzly,4558.495,brown,calm,10,23,A1IS0218RVG60K,critical
636,pants,5275.885,brown,clean,10,24,A1IS0218RVG60K,critical
637,officer,5358.465,blue,jealous,10,25,A1IS0218RVG60K,critical
638,can,23542.075,blue,dull,10,26,A1IS0218RVG60K,critical
639,bicycle,8606.59,red,liked,10,27,A1IS0218RVG60K,critical
640,cop,4012.46,blue,aggressive,10,28,A1IS0218RVG60K,critical
641,police,4672.795,blue,disliked,10,29,A1IS0218RVG60K,critical
642,trash,15813.29,red,dirty,10,30,A1IS0218RVG60K,critical
643,wasp,16585.325,red,angry,10,31,A1IS0218RVG60K,critical
644,feather,3793.87,brown,light,10,32,A1IS0218RVG60K,critical
645,ants,11450.475,red,disliked,10,33,A1IS0218RVG60K,critical
646,bird,97865.47,blue,active,10,34,A1IS0218RVG60K,critical
647,pastry,6009.785,blue,stale,10,35,A1IS0218RVG60K,critical
648,hat,3994.835,brown,old,10,36,A1IS0218RVG60K,critical
649,leaf,3537.135,brown,dead,10,37,A1IS0218RVG60K,critical
650,flowers,13803.765,blue,fresh,10,38,A1IS0218RVG60K,critical
651,rat,3406.205,brown,submissive,10,39,A1IS0218RVG60K,critical
652,banana,3217.48,brown,ripe,10,40,A1IS0218RVG60K,critical
653,coffee,12404.32,brown,fresh,10,41,A1IS0218RVG60K,critical
654,shark,13737.095,blue,angry,10,42,A1IS0218RVG60K,critical
655,goat,19372.92,brown,aggressive,10,43,A1IS0218RVG60K,critical
656,strawberry,4858.795,red,fresh,10,44,A1IS0218RVG60K,critical
657,shoes,7954.04,blue,old,10,45,A1IS0218RVG60K,critical
658,hornet,5315.625,red,aggressive,10,46,A1IS0218RVG60K,critical
659,butterfly,20823.455,blue,submissive,10,47,A1IS0218RVG60K,critical
660,pepper,2904.9,red,hot,10,48,A1IS0218RVG60K,critical
661,husband,8373.91,red,jealous,10,49,A1IS0218RVG60K,critical
662,tundra,3521.18,brown,cold,10,50,A1IS0218RVG60K,critical
663,sun,3159.37,red,active,10,51,A1IS0218RVG60K,critical
664,blood,7281.735,red,sad,10,52,A1IS0218RVG60K,critical
665,ocean,2931.95,blue,exciting,10,53,A1IS0218RVG60K,critical
666,elk,4624.975,brown,slow,10,54,A1IS0218RVG60K,critical
667,deer,4014.08,brown,active,10,55,A1IS0218RVG60K,critical
668,cardinal,25747.905,red,submissive,10,56,A1IS0218RVG60K,critical
669,pillow,7511.965,blue,soft,10,57,A1IS0218RVG60K,critical
670,brick,2849.445,red,heavy,10,58,A1IS0218RVG60K,critical
671,sack,4777.12,brown,heavy,10,59,A1IS0218RVG60K,critical
672,dress,9756.44,red,new,10,60,A1IS0218RVG60K,critical
673,boat,3632.1,red,fast,10,62,A1IS0218RVG60K,critical
674,insect,31958.215,blue,alive,10,63,A1IS0218RVG60K,critical
675,plate,9843.575,red,clean,10,64,A1IS0218RVG60K,critical
676,tide,9943.205,blue,slow,10,65,A1IS0218RVG60K,critical
677,coat,10773.37,red,soft,10,66,A1IS0218RVG60K,critical
678,raspberry,6367.92,red,unripe,10,67,A1IS0218RVG60K,critical
679,gazelle,5500.54,brown,fast,10,68,A1IS0218RVG60K,critical
680,bread,2691.98,brown,stale,10,69,A1IS0218RVG60K,critical
681,sucker,4757.105,red,hard,10,70,A1IS0218RVG60K,critical
682,grape,11408.31,blue,ripe,10,71,A1IS0218RVG60K,critical
683,knife,2980.075,brown,dull,10,72,A1IS0218RVG60K,critical
684,parrot,18793.125,blue,tense,10,73,A1IS0218RVG60K,critical
685,child,117179.575,red,relaxed,10,74,A1IS0218RVG60K,critical
686,dart,4104.93,blue,fast,10,76,A1IS0218RVG60K,critical
687,sunset,4850.505,red,calm,10,77,A1IS0218RVG60K,critical
688,morning,4270.08,blue,cold,10,78,A1IS0218RVG60K,critical
689,lake,3902.875,blue,calm,10,79,A1IS0218RVG60K,critical
690,dirt,4600.405,brown,disliked,10,80,A1IS0218RVG60K,critical
691,sign,40309.03,red,cold,10,81,A1IS0218RVG60K,critical
692,snake,4373.195,brown,alive,10,82,A1IS0218RVG60K,critical
693,scorpion,10471.37,red,tense,10,83,A1IS0218RVG60K,critical
694,necktie,4144.93,brown,new,10,84,A1IS0218RVG60K,critical
695,balloon,9421.26,red,happy,10,85,A1IS0218RVG60K,critical
696,tricycle,12838.49,red,slow,10,86,A1IS0218RVG60K,critical
697,bison,10979.79,brown,passive,10,87,A1IS0218RVG60K,critical
698,sea,14023.155,blue,passive,10,88,A1IS0218RVG60K,critical
699,tea,2717.77,brown,hot,10,89,A1IS0218RVG60K,critical
700,pomegranate,13328.87,red,light,10,90,A1IS0218RVG60K,critical
701,stereo,38268.09,blue,happy,10,92,A1IS0218RVG60K,critical
702,dessert,33343.96,blue,hot,10,93,A1IS0218RVG60K,critical
703,dog,7102.915,brown,jealous,10,94,A1IS0218RVG60K,critical
704,kitty,10880.46,brown,tense,10,95,A1IS0218RVG60K,critical
705,stingray,10683.24,brown,angry,10,96,A1IS0218RVG60K,critical
706,tomato,4058.83,red,ripe,10,97,A1IS0218RVG60K,critical
707,avocado,5788.655,brown,soft,10,98,A1IS0218RVG60K,critical
708,phone,15750.835,blue,liked,10,99,A1IS0218RVG60K,critical
709,truck,4048.245,blue,heavy,10,100,A1IS0218RVG60K,critical
710,corpse,4054.92,blue,dead,10,101,A1IS0218RVG60K,critical
711,tranquility,22007.2,blue,relaxed,10,102,A1IS0218RVG60K,critical
712,mud,2587.31,brown,dirty,10,103,A1IS0218RVG60K,critical
713,rocks,3348.67,brown,hard,10,104,A1IS0218RVG60K,critical
714,tobacco,11500.565,brown,exciting,10,105,A1IS0218RVG60K,critical
715,race car,9911.615,blue,exciting,7,1,AUFUUD4WG9CVO,critical
716,smurf,5092.02,blue,jealous,7,3,AUFUUD4WG9CVO,critical
717,chick,3166.295,yellow,soft,7,4,AUFUUD4WG9CVO,critical
718,plastic bin,16269.825,blue,light,7,5,AUFUUD4WG9CVO,critical
719,scared cat,6737.685,orange,fast,7,6,AUFUUD4WG9CVO,critical
720,cobalt,7627.81,blue,dull,7,7,AUFUUD4WG9CVO,critical
721,rooster,6883.945,orange,active,7,8,AUFUUD4WG9CVO,critical
722,sky,13862.22,blue,passive,7,9,AUFUUD4WG9CVO,critical
723,orange,5666.375,orange,new,7,10,AUFUUD4WG9CVO,critical
724,chick,3549.655,yellow,light,7,11,AUFUUD4WG9CVO,critical
725,banana,6926.05,yellow,passive,7,13,AUFUUD4WG9CVO,critical
726,angry cat,4719.19,orange,aggressive,7,14,AUFUUD4WG9CVO,critical
727,blueberrys,6070.515,blue,fresh,7,15,AUFUUD4WG9CVO,critical
728,tuna,3539.93,blue,active,7,16,AUFUUD4WG9CVO,critical
729,jack o lantern,20396.69,orange,light,7,17,AUFUUD4WG9CVO,critical
730,sun,10315.125,yellow,aggressive,7,18,AUFUUD4WG9CVO,critical
731,bee,27854.645,yellow,active,7,19,AUFUUD4WG9CVO,critical
732,birds,8023.61,yellow,fast,7,20,AUFUUD4WG9CVO,critical
733,cheese,4382.96,orange,submissive,7,21,AUFUUD4WG9CVO,critical
734,ocean,27782.645,blue,aggressive,7,22,AUFUUD4WG9CVO,critical
735,stress,8587.26,orange,tense,7,23,AUFUUD4WG9CVO,critical
736,workers,25994.935,orange,selfless,7,24,AUFUUD4WG9CVO,critical
737,lemon,2496.285,yellow,hard,7,25,AUFUUD4WG9CVO,critical
738,cookie monster,14679.72,blue,slow,7,26,AUFUUD4WG9CVO,critical
739,twitter,3801.87,blue,tense,7,27,AUFUUD4WG9CVO,critical
740,crayons,6489.085,yellow,dull,7,28,AUFUUD4WG9CVO,critical
741,butterfly,15355.775,blue,happy,7,29,AUFUUD4WG9CVO,critical
742,popsicle,20148.245,orange,happy,7,30,AUFUUD4WG9CVO,critical
743,orange,2571.33,orange,fresh,7,31,AUFUUD4WG9CVO,critical
744,fish,7088.03,orange,clean,7,32,AUFUUD4WG9CVO,critical
745,carrot,5201.015,orange,unripe,7,33,AUFUUD4WG9CVO,critical
746,moon,4460.94,blue,sad,7,34,AUFUUD4WG9CVO,critical
747,taxi,10755.92,yellow,heavy,7,35,AUFUUD4WG9CVO,critical
748,fish,2783.54,orange,dead,7,36,AUFUUD4WG9CVO,critical
749,apple,6276.76,yellow,unripe,7,37,AUFUUD4WG9CVO,critical
750,orangutan,20753.52,orange,heavy,7,38,AUFUUD4WG9CVO,critical
751,Garfield,17707.115,orange,old,7,39,AUFUUD4WG9CVO,critical
752,fish,3713.05,blue,fast,7,40,AUFUUD4WG9CVO,critical
753,Homer Simpson,15676.085,yellow,jealous,7,41,AUFUUD4WG9CVO,critical
754,Cones,6574.035,orange,calm,7,42,AUFUUD4WG9CVO,critical
755,Pillow,2855.9,blue,soft,7,43,AUFUUD4WG9CVO,critical
756,mcdonalds,6628.32,yellow,stale,7,44,AUFUUD4WG9CVO,critical
757,flowers,13760.04,orange,passive,7,45,AUFUUD4WG9CVO,critical
758,carrots,4444.64,orange,hard,7,46,AUFUUD4WG9CVO,critical
759,banana,3026.08,yellow,ripe,7,47,AUFUUD4WG9CVO,critical
760,pac man,22487.725,yellow,sad,7,48,AUFUUD4WG9CVO,critical
761,traffic cones,5144.63,orange,dirty,7,49,AUFUUD4WG9CVO,critical
762,ice,1719.555,blue,cold,7,50,AUFUUD4WG9CVO,critical
763,pikachu,5100.03,yellow,new,7,51,AUFUUD4WG9CVO,critical
764,annoying orange,6687.625,orange,disliked,7,52,AUFUUD4WG9CVO,critical
765,bluebird,13834.895,blue,alive,7,53,AUFUUD4WG9CVO,critical
766,Trump,4324.195,orange,jealous,7,54,AUFUUD4WG9CVO,critical
767,Avatar people,7648.305,blue,disliked,7,55,AUFUUD4WG9CVO,critical
768,Orangesicle,6935.505,orange,cold,7,56,AUFUUD4WG9CVO,critical
769,sapphire,12931.84,blue,hard,7,58,AUFUUD4WG9CVO,critical
770,jeans,4722.15,blue,dirty,7,59,AUFUUD4WG9CVO,critical
771,blueberrys,4507.745,blue,unripe,7,60,AUFUUD4WG9CVO,critical
772,smurfs,4798.86,blue,old,7,61,AUFUUD4WG9CVO,critical
773,tractor,13350.8,yellow,dirty,7,62,AUFUUD4WG9CVO,critical
774,flowers,6442.565,blue,submissive,7,63,AUFUUD4WG9CVO,critical
775,shark,5631.135,blue,angry,7,64,AUFUUD4WG9CVO,critical
776,smurfs,4296.385,blue,liked,7,65,AUFUUD4WG9CVO,critical
777,water,13000.77,blue,heavy,7,66,AUFUUD4WG9CVO,critical
778,facebook,5624.88,blue,stale,7,67,AUFUUD4WG9CVO,critical
779,emoji,10894.745,yellow,disliked,7,68,AUFUUD4WG9CVO,critical
780,Trump,2926.96,orange,angry,7,69,AUFUUD4WG9CVO,critical
781,cops,6081.465,blue,selfless,7,70,AUFUUD4WG9CVO,critical
782,Orange cookies,13359.23,orange,stale,7,71,AUFUUD4WG9CVO,critical
783,bees,3572.605,yellow,alive,7,72,AUFUUD4WG9CVO,critical
784,blueberrys,4911.22,blue,ripe,7,73,AUFUUD4WG9CVO,critical
785,post it notes,10161.33,yellow,relaxed,7,74,AUFUUD4WG9CVO,critical
786,headphones,20401.91,blue,new,7,75,AUFUUD4WG9CVO,critical
787,oranges,4342.75,orange,dull,7,76,AUFUUD4WG9CVO,critical
788,ducks,16117.725,yellow,dead,7,77,AUFUUD4WG9CVO,critical
789,cat,9575.74,orange,soft,7,78,AUFUUD4WG9CVO,critical
790,tape measure,7567.15,yellow,tense,7,79,AUFUUD4WG9CVO,critical
791,pikachu,6395.685,yellow,selfless,7,80,AUFUUD4WG9CVO,critical
792,lake,3650,blue,calm,7,81,AUFUUD4WG9CVO,critical
793,banana,3736.98,yellow,fresh,7,82,AUFUUD4WG9CVO,critical
794,car,9427.96,yellow,exciting,7,83,AUFUUD4WG9CVO,critical
795,butterfly,10172.935,orange,alive,7,84,AUFUUD4WG9CVO,critical
796,sun,3819.215,yellow,hot,7,85,AUFUUD4WG9CVO,critical
797,boiling water,5913.21,blue,hot,7,86,AUFUUD4WG9CVO,critical
798,rubber ducks,6601.885,yellow,calm,7,87,AUFUUD4WG9CVO,critical
799,orange juice,15667.095,orange,liked,7,88,AUFUUD4WG9CVO,critical
800,flowers,5836.115,yellow,submissive,7,89,AUFUUD4WG9CVO,critical
801,water,3991.805,blue,clean,7,90,AUFUUD4WG9CVO,critical
802,streams,3659.88,blue,relaxed,7,91,AUFUUD4WG9CVO,critical
803,goldfish,11041.24,orange,relaxed,7,92,AUFUUD4WG9CVO,critical
804,Trump,30859.31,orange,sad,7,93,AUFUUD4WG9CVO,critical
805,sun,2320.055,yellow,angry,7,94,AUFUUD4WG9CVO,critical
806,taxi in new york,7329.29,yellow,slow,7,95,AUFUUD4WG9CVO,critical
807,fish,4969.565,blue,dead,7,96,AUFUUD4WG9CVO,critical
808,sun,2733.235,yellow,clean,7,97,AUFUUD4WG9CVO,critical
809,banana popsicle,7282.18,yellow,cold,7,98,AUFUUD4WG9CVO,critical
810,mcdonalds,14180.075,yellow,liked,7,99,AUFUUD4WG9CVO,critical
811,race car,3724.925,orange,exciting,7,100,AUFUUD4WG9CVO,critical
812,pac man,3611.66,yellow,old,7,101,AUFUUD4WG9CVO,critical
813,flamin hot cheetos,8211.12,orange,hot,7,102,AUFUUD4WG9CVO,critical
814,emoji,4327.14,yellow,happy,7,103,AUFUUD4WG9CVO,critical
815,orange,2233.855,orange,ripe,7,104,AUFUUD4WG9CVO,critical
816,goldfish,13203.48,orange,slow,7,105,AUFUUD4WG9CVO,critical
817,iron ,4844.1,black,heavy,28,1,A288RSAGJBLY9,critical
818,ghost,3285.72,white,passive,28,2,A288RSAGJBLY9,critical
819,frog,2231.285,green,happy,28,3,A288RSAGJBLY9,critical
820,cat,3101.735,black,jealous,28,4,A288RSAGJBLY9,critical
821,grape,3630.5,green,ripe,28,5,A288RSAGJBLY9,critical
822,cake,4619.87,black,liked,28,6,A288RSAGJBLY9,critical
823,wine,2509.145,white,relaxed,28,7,A288RSAGJBLY9,critical
824,panther,6702.79,black,angry,28,8,A288RSAGJBLY9,critical
825,screen,4827.38,black,relaxed,28,9,A288RSAGJBLY9,critical
826,pie,10163.42,white,disliked,28,10,A288RSAGJBLY9,critical
827,leaf,3274.72,green,alive,28,11,A288RSAGJBLY9,critical
828,coal,6168.885,black,disliked,28,12,A288RSAGJBLY9,critical
829,graphite,12303.85,black,cold,28,13,A288RSAGJBLY9,critical
830,soot,4754.075,black,dirty,28,14,A288RSAGJBLY9,critical
831,rock,3317.425,white,hard,28,15,A288RSAGJBLY9,critical
832,eggplant,7828.835,black,unripe,28,16,A288RSAGJBLY9,critical
833,money,4230.035,green,new,28,17,A288RSAGJBLY9,critical
834,envy,8687.545,green,jealous,28,18,A288RSAGJBLY9,critical
835,snow,3458.275,white,cold,28,19,A288RSAGJBLY9,critical
836,asphalt,6004.205,black,fresh,28,20,A288RSAGJBLY9,critical
837,bird,8580.54,white,angry,28,21,A288RSAGJBLY9,critical
838,emerald,5423.76,green,light,28,23,A288RSAGJBLY9,critical
839,apple,3978.545,green,angry,28,24,A288RSAGJBLY9,critical
840,eraer,2948.355,white,dull,28,25,A288RSAGJBLY9,critical
841,newspaper,6173.425,white,dirty,28,26,A288RSAGJBLY9,critical
842,cat,2839.595,black,alive,28,27,A288RSAGJBLY9,critical
843,lava,4667.805,black,calm,28,28,A288RSAGJBLY9,critical
844,car,3631.21,white,fast,28,29,A288RSAGJBLY9,critical
845,grass,5934.25,green,soft,28,30,A288RSAGJBLY9,critical
846,bear,5331.155,white,liked,28,31,A288RSAGJBLY9,critical
847,alien,4663.205,green,aggressive,28,32,A288RSAGJBLY9,critical
848,dolpin,11508.115,green,fast,28,33,A288RSAGJBLY9,critical
849,teacher,4319.825,white,tense,28,34,A288RSAGJBLY9,critical
850,sheet,3445.205,white,alive,28,35,A288RSAGJBLY9,critical
851,skillet,5299.43,black,hot,28,36,A288RSAGJBLY9,critical
852,dog,4877.985,white,jealous,28,37,A288RSAGJBLY9,critical
853,foam,14269.26,green,passive,28,38,A288RSAGJBLY9,critical
854,bread,3441.855,white,stale,28,39,A288RSAGJBLY9,critical
855,germs,8208.675,green,disliked,28,40,A288RSAGJBLY9,critical
856,bear,14297.06,black,sad,28,41,A288RSAGJBLY9,critical
857,zombie,3282.72,white,dead,28,42,A288RSAGJBLY9,critical
858,body,8517.59,green,old,28,43,A288RSAGJBLY9,critical
859,sponge,4052.615,green,clean,28,44,A288RSAGJBLY9,critical
860,eraser,9073.605,green,submissive,28,45,A288RSAGJBLY9,critical
861,lead,3111.465,black,hard,28,46,A288RSAGJBLY9,critical
862,lava,9815.945,black,slow,28,47,A288RSAGJBLY9,critical
863,mirror,7268.475,black,light,28,48,A288RSAGJBLY9,critical
864,bugs,5910.09,white,aggressive,28,49,A288RSAGJBLY9,critical
865,emerald,6852.84,green,hot,28,50,A288RSAGJBLY9,critical
866,sick,5212.82,green,tense,28,51,A288RSAGJBLY9,critical
867,racket,8411.625,black,active,28,52,A288RSAGJBLY9,critical
868,grandma,4527.915,black,old,28,53,A288RSAGJBLY9,critical
869,sock,3662.935,white,new,28,54,A288RSAGJBLY9,critical
870,bird,5280.98,black,happy,28,55,A288RSAGJBLY9,critical
871,antd,2703.77,black,aggressive,28,56,A288RSAGJBLY9,critical
872,cloud,4005.8,white,light,28,57,A288RSAGJBLY9,critical
873,banana,5407.825,white,unripe,28,58,A288RSAGJBLY9,critical
874,panher,3428.46,black,fast,28,59,A288RSAGJBLY9,critical
875,grape,4536.18,white,ripe,28,60,A288RSAGJBLY9,critical
876,emerald,2927.28,green,cold,28,61,A288RSAGJBLY9,critical
877,leaf,3465.83,green,fresh,28,62,A288RSAGJBLY9,critical
878,computer,9702.33,black,tense,28,63,A288RSAGJBLY9,critical
879,sponge,4607.645,white,clean,28,64,A288RSAGJBLY9,critical
880,grasshopper,6293.175,green,active,28,65,A288RSAGJBLY9,critical
881,lead,2591.14,black,dull,28,66,A288RSAGJBLY9,critical
882,sheets,2954.67,white,fresh,28,67,A288RSAGJBLY9,critical
883,money,3269.795,green,relaxed,28,68,A288RSAGJBLY9,critical
884,rollercoaster,12772.305,white,exciting,28,69,A288RSAGJBLY9,critical
885,envy,4793.9,green,sad,28,70,A288RSAGJBLY9,critical
886,monery,3540.055,green,dull,28,71,A288RSAGJBLY9,critical
887,baby,4795.295,white,sad,28,72,A288RSAGJBLY9,critical
888,shoes,5462.82,black,new,28,73,A288RSAGJBLY9,critical
889,skis,8316.54,black,exciting,28,74,A288RSAGJBLY9,critical
890,grasshopper,10684.71,green,selfless,28,75,A288RSAGJBLY9,critical
891,fluff,4604.895,white,soft,28,76,A288RSAGJBLY9,critical
892,emerald,7560.54,green,heavy,28,77,A288RSAGJBLY9,critical
893,bird,7505.945,black,dead,28,78,A288RSAGJBLY9,critical
894,grape,5666.755,black,ripe,28,79,A288RSAGJBLY9,critical
895,statue,4592.86,black,passive,28,81,A288RSAGJBLY9,critical
896,mold,3965.03,black,stale,28,82,A288RSAGJBLY9,critical
897,mallet,10452.85,white,heavy,28,83,A288RSAGJBLY9,critical
898,hand,5633.38,white,selfless,28,84,A288RSAGJBLY9,critical
899,grandma,6583.575,white,old,28,85,A288RSAGJBLY9,critical
900,sun,4990.11,white,hot,28,86,A288RSAGJBLY9,critical
901,snail,4435.8,green,slow,28,87,A288RSAGJBLY9,critical
902,melon,5823.86,green,unripe,28,88,A288RSAGJBLY9,critical
903,shoe,5367.375,white,active,28,89,A288RSAGJBLY9,critical
904,ruler,6479.14,black,submissive,28,90,A288RSAGJBLY9,critical
905,screen,4943.79,black,clean,28,91,A288RSAGJBLY9,critical
906,sponge,5334.35,green,dirty,28,93,A288RSAGJBLY9,critical
907,ghost,4190.565,white,submissive,28,94,A288RSAGJBLY9,critical
908,sloth,6805.595,white,slow,28,95,A288RSAGJBLY9,critical
909,skunk,4111.14,black,soft,28,96,A288RSAGJBLY9,critical
910,grasshopper,6402.215,green,exciting,28,97,A288RSAGJBLY9,critical
911,alien,4644.09,green,dead,28,98,A288RSAGJBLY9,critical
912,money,3558.815,green,calm,28,99,A288RSAGJBLY9,critical
913,goosebump,7530.665,white,calm,28,100,A288RSAGJBLY9,critical
914,leaf,6944.59,green,liked,28,101,A288RSAGJBLY9,critical
915,mold,3406.3,green,stale,28,102,A288RSAGJBLY9,critical
916,emoji,7362.365,white,happy,28,103,A288RSAGJBLY9,critical
917,emerald,4265.11,green,hard,28,104,A288RSAGJBLY9,critical
918,screen,5097.86,black,selfless,28,105,A288RSAGJBLY9,critical
919,avocado,60862.155,green,hard,18,1,A3KFFIBJZVM0J2,critical
920,apple,2325.24,red,ripe,18,2,A3KFFIBJZVM0J2,critical
921,axe,3296.835,red,heavy,18,3,A3KFFIBJZVM0J2,critical
922,chocolate ice cream,6823.745,brown,cold,18,4,A3KFFIBJZVM0J2,critical
923,molasses,4493.16,brown,slow,18,5,A3KFFIBJZVM0J2,critical
924,sports car,4280.7,red,new,18,6,A3KFFIBJZVM0J2,critical
925,cherry,4027.45,red,happy,18,7,A3KFFIBJZVM0J2,critical
926,macaron,4748.12,red,stale,18,9,A3KFFIBJZVM0J2,critical
927,paper,13165.915,red,dull,18,10,A3KFFIBJZVM0J2,critical
928,sour apple,6714.295,green,disliked,18,11,A3KFFIBJZVM0J2,critical
929,sports car,4733.065,red,fast,18,12,A3KFFIBJZVM0J2,critical
930,money,8553.5,green,exciting,18,13,A3KFFIBJZVM0J2,critical
931,Jupiter,14717.11,brown,fast,18,14,A3KFFIBJZVM0J2,critical
932,chocolate,9355.225,brown,clean,18,15,A3KFFIBJZVM0J2,critical
933,drum head,5703.01,brown,tense,18,16,A3KFFIBJZVM0J2,critical
934,hair,4764.21,red,soft,18,17,A3KFFIBJZVM0J2,critical
935,heart,6217.365,red,active,18,18,A3KFFIBJZVM0J2,critical
936,mushroom,4540.58,brown,fresh,18,19,A3KFFIBJZVM0J2,critical
937,alligator,6361.2,green,angry,18,20,A3KFFIBJZVM0J2,critical
938,blood,9152.825,red,clean,18,21,A3KFFIBJZVM0J2,critical
939,fire extinguisher,7864.23,red,hard,18,23,A3KFFIBJZVM0J2,critical
940,grass clippings,18204.4,green,dead,18,24,A3KFFIBJZVM0J2,critical
941,chocolate,4508.68,brown,exciting,18,25,A3KFFIBJZVM0J2,critical
942,alligator,3091.05,green,aggressive,18,26,A3KFFIBJZVM0J2,critical
943,leaf,7996.775,green,light,18,27,A3KFFIBJZVM0J2,critical
944,banana,4566.945,green,unripe,18,28,A3KFFIBJZVM0J2,critical
945,guinea pig,19899.145,red,submissive,18,29,A3KFFIBJZVM0J2,critical
946,bread,5497.435,brown,stale,18,30,A3KFFIBJZVM0J2,critical
947,crab,9757.01,red,aggressive,18,31,A3KFFIBJZVM0J2,critical
948,popsicle,18956.115,red,cold,18,32,A3KFFIBJZVM0J2,critical
949,bull,5404.585,red,angry,18,33,A3KFFIBJZVM0J2,critical
950,neighbor,9740.85,green,jealous,18,34,A3KFFIBJZVM0J2,critical
951,cardboard,17402.3,brown,passive,18,35,A3KFFIBJZVM0J2,critical
952,puppy,6429.09,brown,selfless,18,36,A3KFFIBJZVM0J2,critical
953,dirt,4603.155,brown,old,18,37,A3KFFIBJZVM0J2,critical
954,poop,6408.215,brown,disliked,18,38,A3KFFIBJZVM0J2,critical
955,lobster,16412.595,red,relaxed,18,39,A3KFFIBJZVM0J2,critical
956,gecko,9917.76,green,happy,18,40,A3KFFIBJZVM0J2,critical
957,blood,18236.665,red,sad,18,41,A3KFFIBJZVM0J2,critical
958,grass,12316.6,green,relaxed,18,42,A3KFFIBJZVM0J2,critical
959,plants,25544.1,green,submissive,18,43,A3KFFIBJZVM0J2,critical
960,trees,5531.04,green,old,18,44,A3KFFIBJZVM0J2,critical
961,pitbull,5707.165,brown,aggressive,18,45,A3KFFIBJZVM0J2,critical
962,cooked lobster,8733.57,red,dead,18,46,A3KFFIBJZVM0J2,critical
963,plants,6715.7,green,slow,18,47,A3KFFIBJZVM0J2,critical
964,trees,4797.58,brown,alive,18,48,A3KFFIBJZVM0J2,critical
965,puppy,121018.57,brown,submissive,18,49,A3KFFIBJZVM0J2,critical
966,clown,9233.61,red,jealous,18,51,A3KFFIBJZVM0J2,critical
967,wagon,9319.285,red,slow,18,52,A3KFFIBJZVM0J2,critical
968,lizard,5176.505,green,active,18,53,A3KFFIBJZVM0J2,critical
969,chocolate,23627.395,brown,liked,18,54,A3KFFIBJZVM0J2,critical
970,trampoline,17991.635,red,tense,18,55,A3KFFIBJZVM0J2,critical
971,lizard,4476.63,green,fast,18,56,A3KFFIBJZVM0J2,critical
972,car,10089.94,red,dirty,18,57,A3KFFIBJZVM0J2,critical
973,cat,5480.155,brown,sad,18,58,A3KFFIBJZVM0J2,critical
974,lettuce,5852.97,green,clean,18,59,A3KFFIBJZVM0J2,critical
975,hair,3612.475,brown,soft,18,60,A3KFFIBJZVM0J2,critical
976,boulder,6329.245,brown,heavy,18,61,A3KFFIBJZVM0J2,critical
977,broken toy,49932.7,green,sad,18,62,A3KFFIBJZVM0J2,critical
978,grass,30539.845,green,dirty,18,63,A3KFFIBJZVM0J2,critical
979,moss,7111.33,green,dull,18,64,A3KFFIBJZVM0J2,critical
980,lava,15274.805,red,hot,18,65,A3KFFIBJZVM0J2,critical
981,avocado,4204.17,brown,unripe,18,66,A3KFFIBJZVM0J2,critical
982,puppy,64217.055,brown,jealous,18,67,A3KFFIBJZVM0J2,critical
983,leaves,6138.885,brown,dead,18,68,A3KFFIBJZVM0J2,critical
984,autumn leaves,10795.75,red,calm,18,69,A3KFFIBJZVM0J2,critical
985,leather,14619.645,brown,new,18,70,A3KFFIBJZVM0J2,critical
986,feather,5627.66,brown,light,18,71,A3KFFIBJZVM0J2,critical
987,candy,4044.865,red,liked,18,72,A3KFFIBJZVM0J2,critical
988,rock,29017.575,brown,hard,18,73,A3KFFIBJZVM0J2,critical
989,pear,5677.23,brown,ripe,18,74,A3KFFIBJZVM0J2,critical
990,puppy,8422.79,brown,happy,18,75,A3KFFIBJZVM0J2,critical
991,volcano,9497.76,brown,active,18,76,A3KFFIBJZVM0J2,critical
992,blood,17180.88,red,disliked,18,77,A3KFFIBJZVM0J2,critical
993,floor,7421.255,brown,dirty,18,78,A3KFFIBJZVM0J2,critical
994,peppers,3596.22,green,hot,18,79,A3KFFIBJZVM0J2,critical
995,gecko,17801.2,green,selfless,18,80,A3KFFIBJZVM0J2,critical
996,coals,7692.69,brown,hot,18,81,A3KFFIBJZVM0J2,critical
997,crocodile,4970.925,brown,angry,18,82,A3KFFIBJZVM0J2,critical
998,greeting card,16619.885,red,selfless,18,83,A3KFFIBJZVM0J2,critical
999,cookies,8940.76,green,stale,18,84,A3KFFIBJZVM0J2,critical
1000,light,7400.215,red,passive,18,85,A3KFFIBJZVM0J2,critical
1001,lawn,4828.45,green,calm,18,86,A3KFFIBJZVM0J2,critical
1002,lawn,3914.6,green,soft,18,87,A3KFFIBJZVM0J2,critical
1003,tea,4619.205,green,fresh,18,88,A3KFFIBJZVM0J2,critical
1004,water,7864.965,brown,calm,18,89,A3KFFIBJZVM0J2,critical
1005,popsicle,5180.995,green,cold,18,90,A3KFFIBJZVM0J2,critical
1006,granny smith apple,9403.455,green,ripe,18,91,A3KFFIBJZVM0J2,critical
1007,cardinal,14108.675,red,light,18,92,A3KFFIBJZVM0J2,critical
1008,sign,25243.895,green,tense,18,93,A3KFFIBJZVM0J2,critical
1009,present,9916.25,red,exciting,18,94,A3KFFIBJZVM0J2,critical
1010,bird,6620.135,red,alive,18,95,A3KFFIBJZVM0J2,critical
1011,cave paintings,6268.455,red,old,18,96,A3KFFIBJZVM0J2,critical
1012,football,7645.38,brown,dull,18,97,A3KFFIBJZVM0J2,critical
1013,beet,7819.025,red,unripe,18,98,A3KFFIBJZVM0J2,critical
1014,mold,17005.305,green,new,18,99,A3KFFIBJZVM0J2,critical
1015,beef,3947.69,red,fresh,18,100,A3KFFIBJZVM0J2,critical
1016,pillow,7754.7,brown,relaxed,18,101,A3KFFIBJZVM0J2,critical
1017,my car,12730.26,green,heavy,18,102,A3KFFIBJZVM0J2,critical
1018,sign,11123.375,green,passive,18,103,A3KFFIBJZVM0J2,critical
1019,grass,3434.695,green,alive,18,104,A3KFFIBJZVM0J2,critical
1020,candy,5141.52,green,liked,18,105,A3KFFIBJZVM0J2,critical
1021,banana,10301.19,yellow,dull,9,1,A39C1BN9ZSQ0R2,critical
1022,toast,7138.215,brown,stale,9,2,A39C1BN9ZSQ0R2,critical
1023,orange,5897.8,orange,liked,9,3,A39C1BN9ZSQ0R2,critical
1024,Trump,8874.465,orange,old,9,4,A39C1BN9ZSQ0R2,critical
1025,goldfish,48794.59,orange,jealous,9,5,A39C1BN9ZSQ0R2,critical
1026,rock,3823.29,brown,heavy,9,6,A39C1BN9ZSQ0R2,critical
1027,grass,17454.58,yellow,dead,9,7,A39C1BN9ZSQ0R2,critical
1028,duck,45416.605,yellow,passive,9,8,A39C1BN9ZSQ0R2,critical
1029,pumpkin,5561.92,orange,passive,9,9,A39C1BN9ZSQ0R2,critical
1030,bunny,23434,brown,calm,9,10,A39C1BN9ZSQ0R2,critical
1031,slug,4957.3,yellow,slow,9,11,A39C1BN9ZSQ0R2,critical
1032,scarf,20070.21,yellow,soft,9,12,A39C1BN9ZSQ0R2,critical
1033,carrot,70624.575,orange,relaxed,9,13,A39C1BN9ZSQ0R2,critical
1034,smiley,7384.115,yellow,happy,9,14,A39C1BN9ZSQ0R2,critical
1035,mud,6934.51,brown,dirty,9,15,A39C1BN9ZSQ0R2,critical
1036,chair,26366.295,brown,passive,9,16,A39C1BN9ZSQ0R2,critical
1037,monkey,24105.73,brown,jealous,9,17,A39C1BN9ZSQ0R2,critical
1038,snake,20737.865,yellow,aggressive,9,18,A39C1BN9ZSQ0R2,critical
1039,schoolbus,45592.45,orange,heavy,9,19,A39C1BN9ZSQ0R2,critical
1040,pepper,5133.775,orange,light,9,21,A39C1BN9ZSQ0R2,critical
1041,teddy bear,5320.195,brown,selfless,9,22,A39C1BN9ZSQ0R2,critical
1042,dog,7726.76,brown,relaxed,9,23,A39C1BN9ZSQ0R2,critical
1043,bear,4843.145,brown,alive,9,24,A39C1BN9ZSQ0R2,critical
1044,pear,16624.74,brown,unripe,9,26,A39C1BN9ZSQ0R2,critical
1045,corn,8423.065,yellow,alive,9,27,A39C1BN9ZSQ0R2,critical
1046,fire,35867.065,orange,fast,9,28,A39C1BN9ZSQ0R2,critical
1047,juice,10132.665,orange,disliked,9,29,A39C1BN9ZSQ0R2,critical
1048,lion,32318.935,yellow,angry,9,30,A39C1BN9ZSQ0R2,critical
1049,sun,33075.83,yellow,heavy,9,31,A39C1BN9ZSQ0R2,critical
1050,shoes,64088.815,orange,clean,9,32,A39C1BN9ZSQ0R2,critical
1051,leaf,16332.065,orange,new,9,33,A39C1BN9ZSQ0R2,critical
1052,soda,5227.385,orange,cold,9,34,A39C1BN9ZSQ0R2,critical
1053,cheetos,12587.285,orange,dirty,9,35,A39C1BN9ZSQ0R2,critical
1054,kitten,59864.865,brown,submissive,9,36,A39C1BN9ZSQ0R2,critical
1055,lawn,35280.255,brown,dead,9,37,A39C1BN9ZSQ0R2,critical
1056,spongebob,22349.56,yellow,jealous,9,38,A39C1BN9ZSQ0R2,critical
1057,big bird,8376.715,yellow,sad,9,39,A39C1BN9ZSQ0R2,critical
1058,tiger,11793.78,orange,aggressive,9,40,A39C1BN9ZSQ0R2,critical
1059,skull,35969.565,orange,dead,9,41,A39C1BN9ZSQ0R2,critical
1060,peach,19013.165,orange,fresh,9,42,A39C1BN9ZSQ0R2,critical
1061,football,33445.07,brown,exciting,9,43,A39C1BN9ZSQ0R2,critical
1062,helmet,14719.57,yellow,hard,9,44,A39C1BN9ZSQ0R2,critical
1063,potato,16255.34,brown,fresh,9,45,A39C1BN9ZSQ0R2,critical
1064,homer,9927.245,yellow,tense,9,46,A39C1BN9ZSQ0R2,critical
1065,hamster,22652.66,orange,submissive,9,47,A39C1BN9ZSQ0R2,critical
1066,prison,53748.57,orange,sad,9,48,A39C1BN9ZSQ0R2,critical
1067,lemon,17968.8,yellow,fresh,9,49,A39C1BN9ZSQ0R2,critical
1068,wallpaper,18028.46,brown,old,9,50,A39C1BN9ZSQ0R2,critical
1069,avocado,22062.815,brown,ripe,9,51,A39C1BN9ZSQ0R2,critical
1070,tree,9536.725,brown,hard,9,52,A39C1BN9ZSQ0R2,critical
1071,lollipop,34343.72,orange,hard,9,53,A39C1BN9ZSQ0R2,critical
1072,shorts,17949.345,orange,active,9,54,A39C1BN9ZSQ0R2,critical
1073,star,4127.29,yellow,light,9,55,A39C1BN9ZSQ0R2,critical
1074,lime,38686.625,orange,unripe,9,56,A39C1BN9ZSQ0R2,critical
1075,sunflower,15413.95,yellow,liked,9,57,A39C1BN9ZSQ0R2,critical
1076,sweet potato,29374.86,orange,stale,9,58,A39C1BN9ZSQ0R2,critical
1077,crane,14393.24,orange,slow,9,59,A39C1BN9ZSQ0R2,critical
1078,bird,16612.395,orange,angry,9,60,A39C1BN9ZSQ0R2,critical
1079,yarn,11365.51,orange,soft,9,61,A39C1BN9ZSQ0R2,critical
1080,wasp,25236.39,yellow,disliked,9,62,A39C1BN9ZSQ0R2,critical
1081,clemson,41044.765,orange,exciting,9,63,A39C1BN9ZSQ0R2,critical
1082,cheese,16941.13,yellow,cold,9,64,A39C1BN9ZSQ0R2,critical
1083,deer,40601.985,brown,fast,9,65,A39C1BN9ZSQ0R2,critical
1084,taxi,15441.945,yellow,active,9,66,A39C1BN9ZSQ0R2,critical
1085,polish,16800.64,brown,clean,9,67,A39C1BN9ZSQ0R2,critical
1086,balloons,27808.935,orange,happy,9,68,A39C1BN9ZSQ0R2,critical
1087,blonde,30114.835,yellow,submissive,9,69,A39C1BN9ZSQ0R2,critical
1088,antonio,17867.935,brown,disliked,9,70,A39C1BN9ZSQ0R2,critical
1089,chipmunk,27442.08,brown,light,9,71,A39C1BN9ZSQ0R2,critical
1090,plantain,13145.385,yellow,unripe,9,72,A39C1BN9ZSQ0R2,critical
1091,mango,25059.48,yellow,ripe,9,73,A39C1BN9ZSQ0R2,critical
1092,carpet,19523.71,brown,dull,9,74,A39C1BN9ZSQ0R2,critical
1093,charlie,11955.185,brown,sad,9,75,A39C1BN9ZSQ0R2,critical
1094,gravy,9856.155,brown,hot,9,76,A39C1BN9ZSQ0R2,critical
1095,sugar,14641.375,brown,soft,9,77,A39C1BN9ZSQ0R2,critical
1096,papaya,35330.845,orange,ripe,9,78,A39C1BN9ZSQ0R2,critical
1097,sneakers,32652.995,brown,active,9,79,A39C1BN9ZSQ0R2,critical
1098,grizzly,7925.98,brown,angry,9,80,A39C1BN9ZSQ0R2,critical
1099,courtroom,12296.615,brown,tense,9,81,A39C1BN9ZSQ0R2,critical
1100,mcdonalds,12169.085,yellow,fast,9,82,A39C1BN9ZSQ0R2,critical
1101,canary,45379.675,yellow,relaxed,9,83,A39C1BN9ZSQ0R2,critical
1102,canoe,48513.42,orange,dull,9,84,A39C1BN9ZSQ0R2,critical
1103,goose,15481.035,brown,aggressive,9,85,A39C1BN9ZSQ0R2,critical
1104,garfield,9933.5,orange,calm,9,86,A39C1BN9ZSQ0R2,critical
1105,chili,24552.005,yellow,hot,9,87,A39C1BN9ZSQ0R2,critical
1106,chips,22288.86,yellow,stale,9,88,A39C1BN9ZSQ0R2,critical
1107,orangutan,32427.7,orange,alive,9,89,A39C1BN9ZSQ0R2,critical
1108,chocolate,12334.075,brown,liked,9,90,A39C1BN9ZSQ0R2,critical
1109,chicken wing,26789.675,orange,hot,9,91,A39C1BN9ZSQ0R2,critical
1110,fireworks,25491.6,yellow,exciting,9,92,A39C1BN9ZSQ0R2,critical
1111,acorn,64897.75,brown,new,9,93,A39C1BN9ZSQ0R2,critical
1112,duckling,24937.225,yellow,new,9,94,A39C1BN9ZSQ0R2,critical
1113,sprinkles,20381.73,brown,happy,9,95,A39C1BN9ZSQ0R2,critical
1114,phone book,18864.765,yellow,old,9,96,A39C1BN9ZSQ0R2,critical
1115,fox,26787.705,orange,tense,9,97,A39C1BN9ZSQ0R2,critical
1116,mop,23931.92,yellow,dirty,9,98,A39C1BN9ZSQ0R2,critical
1117,sunset,11136.185,yellow,calm,9,99,A39C1BN9ZSQ0R2,critical
1118,gloves,10331.925,yellow,clean,9,100,A39C1BN9ZSQ0R2,critical
1119,snail,4461.35,brown,slow,9,101,A39C1BN9ZSQ0R2,critical
1120,sunrise,24855.75,orange,selfless,9,102,A39C1BN9ZSQ0R2,critical
1121,ice cream,19179.8,brown,cold,9,103,A39C1BN9ZSQ0R2,critical
1122,flower,27858.875,yellow,selfless,9,105,A39C1BN9ZSQ0R2,critical
1123,knife,7169.09,blue,dull,26,1,A2I43BDUPAM00C,critical
1124,dog,4769.89,brown,passive,26,2,A2I43BDUPAM00C,critical
1125,car,6463.105,blue,selfless,26,3,A2I43BDUPAM00C,critical
1126,boy,6380.765,blue,sad,26,4,A2I43BDUPAM00C,critical
1127,puppy,6708.395,brown,liked,26,5,A2I43BDUPAM00C,critical
1128,snake,17791.705,brown,submissive,26,6,A2I43BDUPAM00C,critical
1129,cat,2678.325,black,soft,26,7,A2I43BDUPAM00C,critical
1130,plumb,4436.65,blue,ripe,26,8,A2I43BDUPAM00C,critical
1131,book,7121.77,brown,exciting,26,9,A2I43BDUPAM00C,critical
1132,lightbulb,5889.725,blue,light,26,10,A2I43BDUPAM00C,critical
1133,monkey,7096.7,brown,selfless,26,11,A2I43BDUPAM00C,critical
1134,horse,22737.605,black,alive,26,12,A2I43BDUPAM00C,critical
1135,fish,2879.575,blue,alive,26,13,A2I43BDUPAM00C,critical
1136,fish,4786.09,brown,dead,26,14,A2I43BDUPAM00C,critical
1137,space,13587.635,black,selfless,26,15,A2I43BDUPAM00C,critical
1138,mold,3130.74,black,disliked,26,16,A2I43BDUPAM00C,critical
1139,car,5031.075,black,exciting,26,17,A2I43BDUPAM00C,critical
1140,fungi,4870.71,brown,active,26,18,A2I43BDUPAM00C,critical
1141,rot,5438.535,black,submissive,26,19,A2I43BDUPAM00C,critical
1142,bread,5303.135,brown,hot,26,20,A2I43BDUPAM00C,critical
1143,rabbit,11759.49,brown,aggressive,26,21,A2I43BDUPAM00C,critical
1144,wire,5269.72,black,tense,26,22,A2I43BDUPAM00C,critical
1145,ice,2305.585,blue,cold,26,23,A2I43BDUPAM00C,critical
1146,force,9204.135,black,aggressive,26,24,A2I43BDUPAM00C,critical
1147,hair,6520.1,brown,tense,26,25,A2I43BDUPAM00C,critical
1148,cloud,6752.985,blue,passive,26,26,A2I43BDUPAM00C,critical
1149,bike,4459.405,blue,new,26,27,A2I43BDUPAM00C,critical
1150,shoes,6503.14,blue,dirty,26,28,A2I43BDUPAM00C,critical
1151,poop,3522.57,brown,disliked,26,29,A2I43BDUPAM00C,critical
1152,bird,15349.015,black,jealous,26,30,A2I43BDUPAM00C,critical
1153,ball,2908.77,blue,heavy,26,31,A2I43BDUPAM00C,critical
1154,curl,3725.415,brown,relaxed,26,32,A2I43BDUPAM00C,critical
1155,tea,26534.02,black,liked,26,33,A2I43BDUPAM00C,critical
1156,kitten,7393.45,brown,calm,26,34,A2I43BDUPAM00C,critical
1157,diamond,7602.005,blue,jealous,26,35,A2I43BDUPAM00C,critical
1158,ball,7110.865,blue,happy,26,36,A2I43BDUPAM00C,critical
1159,shoes,9779.295,black,new,26,37,A2I43BDUPAM00C,critical
1160,bear,6488.19,black,happy,26,38,A2I43BDUPAM00C,critical
1161,shoes,5551.89,brown,new,26,39,A2I43BDUPAM00C,critical
1162,asphalt ,4609.64,black,hot,26,40,A2I43BDUPAM00C,critical
1163,wave,4104.05,blue,exciting,26,41,A2I43BDUPAM00C,critical
1164,street,17981.285,black,sad,26,42,A2I43BDUPAM00C,critical
1165,space,3714.44,black,cold,26,43,A2I43BDUPAM00C,critical
1166,loaf,6712.845,brown,fresh,26,44,A2I43BDUPAM00C,critical
1167,squirrel ,14031.005,brown,jealous,26,45,A2I43BDUPAM00C,critical
1168,dog,9538.29,brown,fast,26,46,A2I43BDUPAM00C,critical
1169,lizzard,4642.165,blue,relaxed,26,47,A2I43BDUPAM00C,critical
1170,shoes,6115.83,blue,fast,26,48,A2I43BDUPAM00C,critical
1171,fruit,4861.735,brown,unripe,26,50,A2I43BDUPAM00C,critical
1172,metor,4814.29,blue,active,26,51,A2I43BDUPAM00C,critical
1173,door,22966.235,blue,submissive,26,53,A2I43BDUPAM00C,critical
1174,star,2966.905,blue,hot,26,54,A2I43BDUPAM00C,critical
1175,crutons,4686.925,brown,stale,26,55,A2I43BDUPAM00C,critical
1176,weights,6369.765,black,heavy,26,56,A2I43BDUPAM00C,critical
1177,night,6631.655,black,light,26,57,A2I43BDUPAM00C,critical
1178,cereal ,8182.275,blue,stale,26,58,A2I43BDUPAM00C,critical
1179,leaves,6900.58,brown,light,26,59,A2I43BDUPAM00C,critical
1180,book,9663.065,brown,sad,26,60,A2I43BDUPAM00C,critical
1181,battery,20281.665,black,active,26,61,A2I43BDUPAM00C,critical
1182,pot,9156.175,black,clean,26,62,A2I43BDUPAM00C,critical
1183,dishes,5086.75,black,dirty,26,63,A2I43BDUPAM00C,critical
1184,food,13298.785,blue,unripe,26,64,A2I43BDUPAM00C,critical
1185,waters,3373.775,black,calm,26,65,A2I43BDUPAM00C,critical
1186,berry,4723.93,black,unripe,26,66,A2I43BDUPAM00C,critical
1187,knife,3167.065,black,dull,26,67,A2I43BDUPAM00C,critical
1188,rock,2641.035,black,hard,26,68,A2I43BDUPAM00C,critical
1189,sky,5633.765,blue,calm,26,69,A2I43BDUPAM00C,critical
1190,grass,3384.865,brown,dull,26,70,A2I43BDUPAM00C,critical
1191,hornet,4341.41,black,angry,26,72,A2I43BDUPAM00C,critical
1192,bird,3604.815,blue,angry,26,73,A2I43BDUPAM00C,critical
1193,finch,3452.425,brown,happy,26,74,A2I43BDUPAM00C,critical
1194,snail,3981.355,black,slow,26,75,A2I43BDUPAM00C,critical
1195,feather,3278.285,brown,soft,26,76,A2I43BDUPAM00C,critical
1196,dirt,5680.715,brown,hard,26,77,A2I43BDUPAM00C,critical
1197,ice,9453.13,blue,disliked,26,78,A2I43BDUPAM00C,critical
1198,honey,13066.805,brown,slow,26,79,A2I43BDUPAM00C,critical
1199,pencil,10311.01,blue,liked,26,80,A2I43BDUPAM00C,critical
1200,chair,6336.995,black,relaxed,26,81,A2I43BDUPAM00C,critical
1201,rug,9371.86,blue,old,26,82,A2I43BDUPAM00C,critical
1202,book,11725.495,black,passive,26,83,A2I43BDUPAM00C,critical
1203,grape,15879.965,black,ripe,26,84,A2I43BDUPAM00C,critical
1204,sock,3520.045,brown,old,26,85,A2I43BDUPAM00C,critical
1205,frog,5529.145,brown,alive,26,86,A2I43BDUPAM00C,critical
1206,flower,7504.56,black,dead,26,87,A2I43BDUPAM00C,critical
1207,boulder,5559.65,brown,heavy,26,88,A2I43BDUPAM00C,critical
1208,apple,3026.825,brown,ripe,26,89,A2I43BDUPAM00C,critical
1209,sportscar ,5133.04,black,fast,26,90,A2I43BDUPAM00C,critical
1210,seeds,4294.94,black,stale,26,91,A2I43BDUPAM00C,critical
1211,town,3129.06,brown,dirty,26,92,A2I43BDUPAM00C,critical
1212,boat,43707.805,blue,slow,26,93,A2I43BDUPAM00C,critical
1213,pudding,4432.8,brown,cold,26,94,A2I43BDUPAM00C,critical
1214,man,5451.685,blue,dead,26,95,A2I43BDUPAM00C,critical
1215,carpet,5014.84,brown,clean,26,96,A2I43BDUPAM00C,critical
1216,bathroom,3489.305,blue,clean,26,97,A2I43BDUPAM00C,critical
1217,tile,4690.125,black,fresh,26,98,A2I43BDUPAM00C,critical
1218,rat,4679.88,brown,angry,26,99,A2I43BDUPAM00C,critical
1219,chair,5044.935,black,old,26,100,A2I43BDUPAM00C,critical
1220,flowers,8552.54,blue,fresh,26,101,A2I43BDUPAM00C,critical
1221,skys,7185.31,blue,soft,26,102,A2I43BDUPAM00C,critical
1222,waves,3073.38,blue,aggressive,26,103,A2I43BDUPAM00C,critical
1223,bolt,17746.88,blue,hard,26,104,A2I43BDUPAM00C,critical
1224,wire,4395.61,blue,tense,26,105,A2I43BDUPAM00C,critical
1225,rock,3900.515,black,hard,19,1,A3URLNXHLP4ARU,critical
1226,money,1873.39,green,new,19,2,A3URLNXHLP4ARU,critical
1227,banana,2890.47,green,unripe,19,3,A3URLNXHLP4ARU,critical
1228,Trump,6061.9,orange,jealous,19,4,A3URLNXHLP4ARU,critical
1229,BLM,3271.94,black,active,19,5,A3URLNXHLP4ARU,critical
1230,fruit,10827.74,orange,liked,19,6,A3URLNXHLP4ARU,critical
1231,sun,6607.305,orange,passive,19,7,A3URLNXHLP4ARU,critical
1232,slug,6456.57,orange,slow,19,8,A3URLNXHLP4ARU,critical
1233,grap,7103.49,black,ripe,19,9,A3URLNXHLP4ARU,critical
1234,money,2011.575,green,exciting,19,10,A3URLNXHLP4ARU,critical
1235,frog,6269.975,green,dirty,19,11,A3URLNXHLP4ARU,critical
1236,papaya,7364.19,green,tense,19,12,A3URLNXHLP4ARU,critical
1237,rock,9835.395,black,passive,19,13,A3URLNXHLP4ARU,critical
1238,bird,17060.73,green,passive,19,14,A3URLNXHLP4ARU,critical
1239,mother,3927.625,black,selfless,19,15,A3URLNXHLP4ARU,critical
1240,car,4542.49,green,fast,19,16,A3URLNXHLP4ARU,critical
1241,ball,5577.045,orange,active,19,17,A3URLNXHLP4ARU,critical
1242,slave,2259.98,black,submissive,19,18,A3URLNXHLP4ARU,critical
1243,peas,3549.215,green,cold,19,19,A3URLNXHLP4ARU,critical
1244,snae,6719.39,black,slow,19,20,A3URLNXHLP4ARU,critical
1245,human,2938.975,green,jealous,19,21,A3URLNXHLP4ARU,critical
1246,grass,3000.32,green,calm,19,22,A3URLNXHLP4ARU,critical
1247,grasshopper,9521.85,green,alive,19,23,A3URLNXHLP4ARU,critical
1248,Malcolm X,7137.23,black,aggressive,19,24,A3URLNXHLP4ARU,critical
1249,popsicle,3531.36,orange,cold,19,25,A3URLNXHLP4ARU,critical
1250,Lamgorghini,5523,black,fast,19,26,A3URLNXHLP4ARU,critical
1251,lettuce,4477.635,green,sad,19,27,A3URLNXHLP4ARU,critical
1252,BLM,3409.355,black,angry,19,28,A3URLNXHLP4ARU,critical
1253,fruit,14815.555,orange,ripe,19,29,A3URLNXHLP4ARU,critical
1254,rock,10587.645,orange,hard,19,30,A3URLNXHLP4ARU,critical
1255,shoe polish,6798.095,black,old,19,32,A3URLNXHLP4ARU,critical
1256,mother,10730.565,black,happy,19,33,A3URLNXHLP4ARU,critical
1257,coal,2335.52,black,hot,19,34,A3URLNXHLP4ARU,critical
1258,Trump,2598.48,orange,aggressive,19,35,A3URLNXHLP4ARU,critical
1259,money,1953.61,green,liked,19,36,A3URLNXHLP4ARU,critical
1260,corpse,3756.22,black,dead,19,37,A3URLNXHLP4ARU,critical
1261,pants,2706.155,black,clean,19,38,A3URLNXHLP4ARU,critical
1262,grass,4600.31,green,clean,19,39,A3URLNXHLP4ARU,critical
1263,money,3824.845,green,aggressive,19,40,A3URLNXHLP4ARU,critical
1264,parakeet,10184.43,orange,alive,19,41,A3URLNXHLP4ARU,critical
1265,smoke detector,9268.3,orange,stale,19,42,A3URLNXHLP4ARU,critical
1266,cotton,4877.315,black,light,19,43,A3URLNXHLP4ARU,critical
1267,mango,9058.85,orange,unripe,19,44,A3URLNXHLP4ARU,critical
1268,juice,2210.65,orange,fresh,19,45,A3URLNXHLP4ARU,critical
1269,fireplac,9209.7,black,heavy,19,46,A3URLNXHLP4ARU,critical
1270,sunset,3646.77,orange,calm,19,48,A3URLNXHLP4ARU,critical
1271,hair,6332.265,orange,relaxed,19,49,A3URLNXHLP4ARU,critical
1272,sweater,5314.505,black,soft,19,50,A3URLNXHLP4ARU,critical
1273,bread,3074.565,black,stale,19,51,A3URLNXHLP4ARU,critical
1274,LBD,11390.235,black,exciting,19,52,A3URLNXHLP4ARU,critical
1275,hair,2647.2,black,relaxed,19,53,A3URLNXHLP4ARU,critical
1276,yoda,4718.55,green,dull,19,54,A3URLNXHLP4ARU,critical
1277,lawnmower,14677.205,green,heavy,19,55,A3URLNXHLP4ARU,critical
1278,activist,4937.475,black,tense,19,56,A3URLNXHLP4ARU,critical
1279,Christmas tree stand,9093.06,green,hard,19,57,A3URLNXHLP4ARU,critical
1280,dollar bills,7512.485,green,happy,19,58,A3URLNXHLP4ARU,critical
1281,tiger,5729.71,orange,fast,19,59,A3URLNXHLP4ARU,critical
1282,cat,7319.31,orange,heavy,19,60,A3URLNXHLP4ARU,critical
1283,Trump,4504.8,orange,angry,19,61,A3URLNXHLP4ARU,critical
1284,chair,3564.185,black,dull,19,62,A3URLNXHLP4ARU,critical
1285,rapper,10743.085,black,disliked,19,63,A3URLNXHLP4ARU,critical
1286,Obama,3618.82,black,alive,19,64,A3URLNXHLP4ARU,critical
1287,dinosaur,11003,green,soft,19,65,A3URLNXHLP4ARU,critical
1288,cookie,4643.675,orange,sad,19,66,A3URLNXHLP4ARU,critical
1289,fire,3790.88,orange,hot,19,67,A3URLNXHLP4ARU,critical
1290,ninja,18119.46,green,angry,19,68,A3URLNXHLP4ARU,critical
1291,car,7765.095,orange,tense,19,69,A3URLNXHLP4ARU,critical
1292,tea,3462.25,green,hot,19,70,A3URLNXHLP4ARU,critical
1293,clothes,6534.7,black,dirty,19,71,A3URLNXHLP4ARU,critical
1294,marshmallow,6677.855,orange,light,19,72,A3URLNXHLP4ARU,critical
1295,poster,3124.71,orange,exciting,19,73,A3URLNXHLP4ARU,critical
1296,carrot,8761.325,orange,submissive,19,74,A3URLNXHLP4ARU,critical
1297,hulk,12891.485,green,disliked,19,75,A3URLNXHLP4ARU,critical
1298,citrus,5860.42,orange,clean,19,76,A3URLNXHLP4ARU,critical
1299,pillow,3287.715,orange,soft,19,77,A3URLNXHLP4ARU,critical
1300,coat,4234.98,orange,dirty,19,78,A3URLNXHLP4ARU,critical
1301,Frankenstein,5853.95,green,dead,19,79,A3URLNXHLP4ARU,critical
1302,shoe,13966.82,orange,dead,19,80,A3URLNXHLP4ARU,critical
1303,prune,3015.245,black,unripe,19,81,A3URLNXHLP4ARU,critical
1304,monkey,5307.835,orange,selfless,19,82,A3URLNXHLP4ARU,critical
1305,pepper,3425.29,black,fresh,19,83,A3URLNXHLP4ARU,critical
1306,spinach,3866.975,green,fresh,19,84,A3URLNXHLP4ARU,critical
1307,shoes,3463.885,black,new,19,85,A3URLNXHLP4ARU,critical
1308,girlfriend,8333.48,black,jealous,19,86,A3URLNXHLP4ARU,critical
1309,sky,5628.41,black,calm,19,87,A3URLNXHLP4ARU,critical
1310,turtle,3817.785,green,slow,19,88,A3URLNXHLP4ARU,critical
1311,parachute,5787.89,orange,new,19,89,A3URLNXHLP4ARU,critical
1312,jam,7971.48,orange,happy,19,90,A3URLNXHLP4ARU,critical
1313,Trump,2253.585,orange,disliked,19,91,A3URLNXHLP4ARU,critical
1314,moss,4593.46,green,light,19,92,A3URLNXHLP4ARU,critical
1315,knife,4034.7,orange,dull,19,93,A3URLNXHLP4ARU,critical
1316,frog,3545.3,green,active,19,94,A3URLNXHLP4ARU,critical
1317,body,4107.08,black,cold,19,95,A3URLNXHLP4ARU,critical
1318,popsicle,5643.32,orange,old,19,96,A3URLNXHLP4ARU,critical
1319,pear,9079.625,green,ripe,19,97,A3URLNXHLP4ARU,critical
1320,widow,6181.06,black,sad,19,98,A3URLNXHLP4ARU,critical
1321,charity,4404.95,green,selfless,19,99,A3URLNXHLP4ARU,critical
1322,pants,3695.675,black,liked,19,100,A3URLNXHLP4ARU,critical
1323,nature,5637.395,green,relaxed,19,101,A3URLNXHLP4ARU,critical
1324,newspaper,7335.395,green,old,19,102,A3URLNXHLP4ARU,critical
1325,lawn,6547.395,green,submissive,19,104,A3URLNXHLP4ARU,critical
1326,broccoli,6872.71,green,stale,19,105,A3URLNXHLP4ARU,critical
1327,ghost,5122,white,passive,17,1,A22F8STPRATDOB,critical
1328,zombie,3602,purple,dead,17,2,A22F8STPRATDOB,critical
1329,zombie,5602,yellow,dead,17,3,A22F8STPRATDOB,critical
1330,republican,13563,white,sad,17,4,A22F8STPRATDOB,critical
1331,jar,11126,purple,clean,17,5,A22F8STPRATDOB,critical
1332,horse,7599,yellow,fast,17,6,A22F8STPRATDOB,critical
1333,pencil,5292,yellow,dull,17,7,A22F8STPRATDOB,critical
1334,cloud,15951,white,submissive,17,8,A22F8STPRATDOB,critical
1335,heart,4465,purple,selfless,17,9,A22F8STPRATDOB,critical
1336,lab,6126,yellow,dirty,17,10,A22F8STPRATDOB,critical
1337,shoes,4279,white,new,17,11,A22F8STPRATDOB,critical
1338,backpack,7676,purple,dirty,17,12,A22F8STPRATDOB,critical
1339,cat,9582,white,relaxed,17,13,A22F8STPRATDOB,critical
1340,torch,4640,white,hot,17,14,A22F8STPRATDOB,critical
1341,grimace,5142,purple,passive,17,15,A22F8STPRATDOB,critical
1342,grapes,5235,purple,alive,17,16,A22F8STPRATDOB,critical
1343,hair,45280,purple,submissive,17,17,A22F8STPRATDOB,critical
1344,vine,8737,white,ripe,17,18,A22F8STPRATDOB,critical
1345,angel,11700,white,selfless,17,19,A22F8STPRATDOB,critical
1346,coat,8978,purple,relaxed,17,20,A22F8STPRATDOB,critical
1347,horse,3271,white,dirty,17,21,A22F8STPRATDOB,critical
1348,blanket,3781,purple,soft,17,22,A22F8STPRATDOB,critical
1349,sun,4175,yellow,calm,17,23,A22F8STPRATDOB,critical
1350,snake,7456,white,alive,17,24,A22F8STPRATDOB,critical
1351,pillow,6237,white,soft,17,25,A22F8STPRATDOB,critical
1352,cloud,3813,white,happy,17,26,A22F8STPRATDOB,critical
1353,parent,9791,white,old,17,27,A22F8STPRATDOB,critical
1354,grape,12160,white,unripe,17,28,A22F8STPRATDOB,critical
1355,squash,5488,yellow,unripe,17,29,A22F8STPRATDOB,critical
1356,light,4570,yellow,slow,17,30,A22F8STPRATDOB,critical
1357,knife,13409,white,dull,17,31,A22F8STPRATDOB,critical
1358,cereal,5684,white,stale,17,32,A22F8STPRATDOB,critical
1359,monster,10633,purple,disliked,17,33,A22F8STPRATDOB,critical
1360,lakers,17401,purple,happy,17,34,A22F8STPRATDOB,critical
1361,Lebron,5840,yellow,liked,17,35,A22F8STPRATDOB,critical
1362,mustang,9478,yellow,aggressive,17,36,A22F8STPRATDOB,critical
1363,gold,6018,yellow,selfless,17,37,A22F8STPRATDOB,critical
1364,lilac,8586,purple,calm,17,38,A22F8STPRATDOB,critical
1365,rope,4166,purple,tense,17,39,A22F8STPRATDOB,critical
1366,sheet,4216,white,clean,17,40,A22F8STPRATDOB,critical
1367,toe,5439,purple,cold,17,41,A22F8STPRATDOB,critical
1368,plumb,4769,purple,unripe,17,42,A22F8STPRATDOB,critical
1369,dumbell,85724,white,heavy,17,43,A22F8STPRATDOB,critical
1370,sunflower,7641,yellow,alive,17,44,A22F8STPRATDOB,critical
1371,diamond,3216,white,hard,17,45,A22F8STPRATDOB,critical
1372,clown,21722,yellow,jealous,17,46,A22F8STPRATDOB,critical
1373,jogger,4117,yellow,active,17,47,A22F8STPRATDOB,critical
1374,man,6173,purple,angry,17,48,A22F8STPRATDOB,critical
1375,shirt,4585,yellow,new,17,49,A22F8STPRATDOB,critical
1376,hat,1948,yellow,old,17,50,A22F8STPRATDOB,critical
1377,drug,20710,purple,exciting,17,51,A22F8STPRATDOB,critical
1378,grimace,6182,purple,sad,17,52,A22F8STPRATDOB,critical
1379,sneaker,8534,white,fresh,17,53,A22F8STPRATDOB,critical
1380,banana,7796,yellow,tense,17,54,A22F8STPRATDOB,critical
1381,lion,7527,yellow,angry,17,55,A22F8STPRATDOB,critical
1382,jet,4476,purple,fast,17,56,A22F8STPRATDOB,critical
1383,stallion,4923,white,fast,17,57,A22F8STPRATDOB,critical
1384,outfit,28715,purple,hot,17,58,A22F8STPRATDOB,critical
1385,lightsaber,11248,purple,aggressive,17,59,A22F8STPRATDOB,critical
1386,bike,2038458,white,exciting,17,60,A22F8STPRATDOB,critical
1387,god,5579,white,angry,17,61,A22F8STPRATDOB,critical
1388,sheath,4091,purple,dull,17,62,A22F8STPRATDOB,critical
1389,bee,3581,yellow,exciting,17,63,A22F8STPRATDOB,critical
1390,human,4408,white,dead,17,64,A22F8STPRATDOB,critical
1391,raisin,5551,purple,old,17,65,A22F8STPRATDOB,critical
1392,banana,12124,yellow,relaxed,17,66,A22F8STPRATDOB,critical
1393,lemon,4612,yellow,fresh,17,67,A22F8STPRATDOB,critical
1394,cloud,3211,white,slow,17,68,A22F8STPRATDOB,critical
1395,gold,2481,yellow,heavy,17,70,A22F8STPRATDOB,critical
1396,trump,8696,white,disliked,17,71,A22F8STPRATDOB,critical
1397,scarf,6585,yellow,soft,17,72,A22F8STPRATDOB,critical
1398,popsicle,6263,yellow,cold,17,73,A22F8STPRATDOB,critical
1399,pape,12420,purple,light,17,74,A22F8STPRATDOB,critical
1400,fog,5370,white,calm,17,75,A22F8STPRATDOB,critical
1401,cat,3802,white,aggressive,17,76,A22F8STPRATDOB,critical
1402,sun,4399,yellow,happy,17,77,A22F8STPRATDOB,critical
1403,sunshine,3297,yellow,light,17,78,A22F8STPRATDOB,critical
1404,car,14970,purple,heavy,17,79,A22F8STPRATDOB,critical
1405,plumb,5484,purple,fresh,17,80,A22F8STPRATDOB,critical
1406,lilac,6412,purple,new,17,82,A22F8STPRATDOB,critical
1407,baby,20644,white,jealous,17,84,A22F8STPRATDOB,critical
1408,snow,2494,white,cold,17,85,A22F8STPRATDOB,critical
1409,leaf,8856,yellow,passive,17,86,A22F8STPRATDOB,critical
1410,cookie,4108,purple,stale,17,87,A22F8STPRATDOB,critical
1411,grape,3656,purple,ripe,17,88,A22F8STPRATDOB,critical
1412,Jesus,8489,white,liked,17,89,A22F8STPRATDOB,critical
1413,cereal,8628,yellow,stale,17,90,A22F8STPRATDOB,critical
1414,hat,6168,yellow,clean,17,91,A22F8STPRATDOB,critical
1415,tunnel,4278,white,light,17,92,A22F8STPRATDOB,critical
1416,pant,4767,purple,active,17,93,A22F8STPRATDOB,critical
1417,clown,18918,yellow,disliked,17,94,A22F8STPRATDOB,critical
1418,monkey,9906,yellow,sad,17,95,A22F8STPRATDOB,critical
1419,banana,2700,yellow,ripe,17,96,A22F8STPRATDOB,critical
1420,sock,3049,white,active,17,97,A22F8STPRATDOB,critical
1421,fire,3623,yellow,hot,17,98,A22F8STPRATDOB,critical
1422,hair,7924,purple,slow,17,99,A22F8STPRATDOB,critical
1423,fish,10698,purple,jealous,17,100,A22F8STPRATDOB,critical
1424,coin,13679,yellow,hard,17,101,A22F8STPRATDOB,critical
1425,eggplant,4655,purple,liked,17,102,A22F8STPRATDOB,critical
1426,band,6047,white,tense,17,103,A22F8STPRATDOB,critical
1427,noodle,16094,yellow,submissive,17,104,A22F8STPRATDOB,critical
1428,tree,7344,purple,hard,17,105,A22F8STPRATDOB,critical
1429,worker,15007.26,orange,active,29,1,A337X6ZE9WIIU7,critical
1430,fruit,51525.845,orange,passive,29,2,A337X6ZE9WIIU7,critical
1431,turtle,3295,green,slow,29,3,A337X6ZE9WIIU7,critical
1432,shoes,7030.45,blue,new,29,4,A337X6ZE9WIIU7,critical
1433,bird,11390.26,blue,happy,29,5,A337X6ZE9WIIU7,critical
1434,fruit,3800.775,orange,unripe,29,6,A337X6ZE9WIIU7,critical
1435,sweater,6529.93,blue,old,29,7,A337X6ZE9WIIU7,critical
1436,tree,8937.775,orange,dead,29,8,A337X6ZE9WIIU7,critical
1437,peacock,3902.37,blue,aggressive,29,9,A337X6ZE9WIIU7,critical
1438,paint,6532.535,orange,old,29,10,A337X6ZE9WIIU7,critical
1439,grape,4433.75,green,unripe,29,11,A337X6ZE9WIIU7,critical
1440,sun,7561.43,orange,light,29,12,A337X6ZE9WIIU7,critical
1441,fire,2736.38,blue,hot,29,13,A337X6ZE9WIIU7,critical
1442,candy,20838.775,orange,happy,29,14,A337X6ZE9WIIU7,critical
1443,pills,6608.515,blue,passive,29,15,A337X6ZE9WIIU7,critical
1444,moper,18334.17,blue,disliked,29,16,A337X6ZE9WIIU7,critical
1445,cheese,3828.45,blue,stale,29,17,A337X6ZE9WIIU7,critical
1446,car,6063.855,orange,new,29,18,A337X6ZE9WIIU7,critical
1447,girl,19428.295,green,jealous,29,19,A337X6ZE9WIIU7,critical
1448,trump,4548.565,orange,jealous,29,20,A337X6ZE9WIIU7,critical
1449,cleaner,53141.64,orange,liked,29,21,A337X6ZE9WIIU7,critical
1450,trump,3563.255,orange,disliked,29,22,A337X6ZE9WIIU7,critical
1451,plant,33344.235,green,happy,29,23,A337X6ZE9WIIU7,critical
1452,berry,4087.565,blue,ripe,29,24,A337X6ZE9WIIU7,critical
1453,grass,3391.71,green,alive,29,25,A337X6ZE9WIIU7,critical
1454,apple,4106.7,green,stale,29,27,A337X6ZE9WIIU7,critical
1455,yarn,39713.27,blue,relaxed,29,28,A337X6ZE9WIIU7,critical
1456,candy,3564.2,orange,hard,29,29,A337X6ZE9WIIU7,critical
1457,sativa,44655.21,green,active,29,30,A337X6ZE9WIIU7,critical
1458,shirt,16294.895,orange,soft,29,31,A337X6ZE9WIIU7,critical
1459,cannabis,16783.195,green,liked,29,32,A337X6ZE9WIIU7,critical
1460,hedgehog,12168.7,blue,fast,29,33,A337X6ZE9WIIU7,critical
1461,bread,10326.6,green,disliked,29,34,A337X6ZE9WIIU7,critical
1462,towel,4463.135,blue,clean,29,35,A337X6ZE9WIIU7,critical
1463,hulk,2922.555,green,angry,29,36,A337X6ZE9WIIU7,critical
1464,cat,26234.09,orange,submissive,29,37,A337X6ZE9WIIU7,critical
1465,indica,5428.915,green,calm,29,38,A337X6ZE9WIIU7,critical
1466,car,12277.885,green,fast,29,39,A337X6ZE9WIIU7,critical
1467,cone,14573.24,orange,tense,29,40,A337X6ZE9WIIU7,critical
1468,babygirl,20260.155,blue,submissive,29,41,A337X6ZE9WIIU7,critical
1469,party,20847.22,green,selfless,29,42,A337X6ZE9WIIU7,critical
1470,LED,8580.465,blue,light,29,43,A337X6ZE9WIIU7,critical
1471,linen,5246.265,blue,fresh,29,44,A337X6ZE9WIIU7,critical
1472,car,17970.645,orange,fast,29,45,A337X6ZE9WIIU7,critical
1473,overdose,5501.46,blue,dead,29,46,A337X6ZE9WIIU7,critical
1474,pumice,22229.31,orange,dirty,29,47,A337X6ZE9WIIU7,critical
1475,hat,38388.355,orange,relaxed,29,48,A337X6ZE9WIIU7,critical
1476,tea,8518.97,orange,calm,29,49,A337X6ZE9WIIU7,critical
1477,cloth,6364.78,blue,soft,29,50,A337X6ZE9WIIU7,critical
1478,wire,50354.44,blue,alive,29,51,A337X6ZE9WIIU7,critical
1479,lawn,8924.595,green,fresh,29,52,A337X6ZE9WIIU7,critical
1480,fruit,4187.54,orange,fresh,29,53,A337X6ZE9WIIU7,critical
1481,sandbag,15369.785,blue,heavy,29,54,A337X6ZE9WIIU7,critical
1482,deal,16830.7,green,new,29,55,A337X6ZE9WIIU7,critical
1483,compost,7680.62,green,heavy,29,56,A337X6ZE9WIIU7,critical
1484,mood,7399.84,blue,sad,29,57,A337X6ZE9WIIU7,critical
1485,tree,5160.855,orange,alive,29,58,A337X6ZE9WIIU7,critical
1486,fire,2662.505,orange,hot,29,59,A337X6ZE9WIIU7,critical
1487,baboon,6311.95,orange,aggressive,29,60,A337X6ZE9WIIU7,critical
1488,color,10195.445,blue,liked,29,61,A337X6ZE9WIIU7,critical
1489,fatigues,5029.76,green,dirty,29,62,A337X6ZE9WIIU7,critical
1490,jacket,5959.325,green,clean,29,63,A337X6ZE9WIIU7,critical
1491,berry,3500.275,blue,unripe,29,65,A337X6ZE9WIIU7,critical
1492,shine,4822.195,orange,dull,29,66,A337X6ZE9WIIU7,critical
1493,grapes,3480.34,green,ripe,29,67,A337X6ZE9WIIU7,critical
1494,leather,20415.685,green,submissive,29,68,A337X6ZE9WIIU7,critical
1495,hose,18236.205,green,tense,29,69,A337X6ZE9WIIU7,critical
1496,democrat,7374.96,blue,selfless,29,70,A337X6ZE9WIIU7,critical
1497,mckinney,7180.985,green,sad,29,71,A337X6ZE9WIIU7,critical
1498,acid,8993.89,green,hot,29,72,A337X6ZE9WIIU7,critical
1499,popsicle,13644.16,orange,cold,29,73,A337X6ZE9WIIU7,critical
1500,tractor,19218.37,orange,heavy,29,74,A337X6ZE9WIIU7,critical
1501,cactus,9557.515,green,passive,29,75,A337X6ZE9WIIU7,critical
1502,zuchinni,7247.06,green,hard,29,76,A337X6ZE9WIIU7,critical
1503,electric,14441.68,blue,exciting,29,77,A337X6ZE9WIIU7,critical
1504,houseplant,7315.33,green,dead,29,78,A337X6ZE9WIIU7,critical
1505,advertisement,8251.85,orange,exciting,29,79,A337X6ZE9WIIU7,critical
1506,tarp,6988.63,blue,dirty,29,80,A337X6ZE9WIIU7,critical
1507,copper,7629.785,green,old,29,81,A337X6ZE9WIIU7,critical
1508,ocean,6179.105,blue,calm,29,82,A337X6ZE9WIIU7,critical
1509,spray,21331.135,orange,clean,29,83,A337X6ZE9WIIU7,critical
1510,ice,13302.445,blue,cold,29,84,A337X6ZE9WIIU7,critical
1511,trump,6499.905,orange,angry,29,85,A337X6ZE9WIIU7,critical
1512,signal,16864.61,green,light,29,86,A337X6ZE9WIIU7,critical
1513,metal,12553.705,blue,dull,29,87,A337X6ZE9WIIU7,critical
1514,turtleneck,23547.055,green,soft,29,88,A337X6ZE9WIIU7,critical
1515,emergency,17613.66,orange,selfless,29,89,A337X6ZE9WIIU7,critical
1516,drink,7837.26,green,exciting,29,90,A337X6ZE9WIIU7,critical
1517,cat,37591.74,orange,sad,29,91,A337X6ZE9WIIU7,critical
1518,waves,39314.62,blue,angry,29,92,A337X6ZE9WIIU7,critical
1519,iceland,12910.19,green,cold,29,93,A337X6ZE9WIIU7,critical
1520,rock,6902.68,blue,hard,29,94,A337X6ZE9WIIU7,critical
1521,fruit,3608.91,orange,ripe,29,95,A337X6ZE9WIIU7,critical
1522,candy,6540.995,orange,stale,29,96,A337X6ZE9WIIU7,critical
1523,oxidation,12628.23,green,dull,29,98,A337X6ZE9WIIU7,critical
1524,caution,11351.155,orange,slow,29,99,A337X6ZE9WIIU7,critical
1525,current,8650.75,blue,active,29,100,A337X6ZE9WIIU7,critical
1526,indica,5532.08,green,relaxed,29,101,A337X6ZE9WIIU7,critical
1527,sanders,6892.55,blue,jealous,29,102,A337X6ZE9WIIU7,critical
1528,bicycle,22301.21,blue,slow,29,103,A337X6ZE9WIIU7,critical
1529,hulk,3576.81,green,aggressive,29,104,A337X6ZE9WIIU7,critical
1530,wire,6069.465,blue,tense,29,105,A337X6ZE9WIIU7,critical
1531,Matte green paint,11233.2,green,dull,27,1,A3JCMVMH9UQW88,critical
1532,New bike,8377.8,purple,clean,27,2,A3JCMVMH9UQW88,critical
1533,Apple,4085.3,red,clean,27,3,A3JCMVMH9UQW88,critical
1534,Angry cartoon,6316.3,red,aggressive,27,4,A3JCMVMH9UQW88,critical
1535,Granny smith apple,13197.1,green,light,27,5,A3JCMVMH9UQW88,critical
1536,Cabbage,10104.4,purple,sad,27,6,A3JCMVMH9UQW88,critical
1537,Moldy bread,18638.3,green,stale,27,7,A3JCMVMH9UQW88,critical
1538,Old tricycle,13347.3,red,sad,27,8,A3JCMVMH9UQW88,critical
1539,Palm tree,10053.7,green,relaxed,27,9,A3JCMVMH9UQW88,critical
1540,Angry cartoon,19084.4,red,tense,27,10,A3JCMVMH9UQW88,critical
1541,Money,6140.7,green,exciting,27,11,A3JCMVMH9UQW88,critical
1542,Barney the dinosaur,22942.4,purple,selfless,27,12,A3JCMVMH9UQW88,critical
1543,Stove coils,15839.3,red,hot,27,13,A3JCMVMH9UQW88,critical
1544,New bike,4676.6,red,new,27,14,A3JCMVMH9UQW88,critical
1545,Praying mantis,35057.3,green,selfless,27,15,A3JCMVMH9UQW88,critical
1546,Roller coaster,17771.1,red,exciting,27,16,A3JCMVMH9UQW88,critical
1547,Eggplant,61367.8,purple,liked,27,17,A3JCMVMH9UQW88,critical
1548,Red cabbage,8943.3,purple,submissive,27,18,A3JCMVMH9UQW88,critical
1549,Shiny bike,10018.7,red,happy,27,19,A3JCMVMH9UQW88,critical
1550,Bowling ball,13462.7,red,hard,27,20,A3JCMVMH9UQW88,critical
1551,Squished roadkill,14539.8,red,dead,27,21,A3JCMVMH9UQW88,critical
1552,Eggplant,8079.7,purple,ripe,27,22,A3JCMVMH9UQW88,critical
1553,Red crayon,12063.4,red,dull,27,23,A3JCMVMH9UQW88,critical
1554,Frozen grapes,7870.2,purple,cold,27,24,A3JCMVMH9UQW88,critical
1555,Old pickles,12519.1,green,old,27,25,A3JCMVMH9UQW88,critical
1556,Raw red cabbage,25376.2,purple,disliked,27,26,A3JCMVMH9UQW88,critical
1557,Granny smith apple,3318.7,green,ripe,27,27,A3JCMVMH9UQW88,critical
1558,Angry cartoon,3597.5,red,jealous,27,28,A3JCMVMH9UQW88,critical
1559,Cabbage,5320.8,green,submissive,27,29,A3JCMVMH9UQW88,critical
1560,New bike,4431.9,green,new,27,30,A3JCMVMH9UQW88,critical
1561,Picked plums,17521.4,purple,dead,27,31,A3JCMVMH9UQW88,critical
1562,Barney the dinosaur,17414.3,purple,happy,27,32,A3JCMVMH9UQW88,critical
1563,Firetruck,8984.9,red,heavy,27,33,A3JCMVMH9UQW88,critical
1564,Jalapeno,9750.6,green,hot,27,34,A3JCMVMH9UQW88,critical
1565,Cranberry,10530.3,red,submissive,27,35,A3JCMVMH9UQW88,critical
1566,Picked cabbage,13189.1,green,dead,27,36,A3JCMVMH9UQW88,critical
1567,Old car,14291.8,purple,old,27,37,A3JCMVMH9UQW88,critical
1568,Frozen Brussels sprouts,43604.3,green,cold,27,38,A3JCMVMH9UQW88,critical
1569,Fox,8542.9,red,active,27,39,A3JCMVMH9UQW88,critical
1570,Stop sign,12790,red,passive,27,41,A3JCMVMH9UQW88,critical
1571,Purple peppers,9032,purple,hot,27,42,A3JCMVMH9UQW88,critical
1572,Angry Barney the dinosaur,26278.4,purple,aggressive,27,43,A3JCMVMH9UQW88,critical
1573,motorcycle,13088.6,purple,fast,27,44,A3JCMVMH9UQW88,critical
1574,Red balloon,6299.3,red,light,27,45,A3JCMVMH9UQW88,critical
1575,Bowling ball,6334.9,purple,hard,27,46,A3JCMVMH9UQW88,critical
1576,Eggplant,6977.6,purple,exciting,27,47,A3JCMVMH9UQW88,critical
1577,Overripe apple,9769,green,sad,27,48,A3JCMVMH9UQW88,critical
1578,Firetruck,9754.6,red,selfless,27,49,A3JCMVMH9UQW88,critical
1579,Angry Barney the dinosaur,5943.9,purple,angry,27,50,A3JCMVMH9UQW88,critical
1580,New scrub pad,12028.6,green,clean,27,51,A3JCMVMH9UQW88,critical
1581,Santa,6296.7,red,liked,27,52,A3JCMVMH9UQW88,critical
1582,Barney the dinosaur,8235.7,purple,active,27,53,A3JCMVMH9UQW88,critical
1583,Play dough,15475.9,red,soft,27,54,A3JCMVMH9UQW88,critical
1584,Cabbage,6615.1,purple,alive,27,55,A3JCMVMH9UQW88,critical
1585,Green mamba snake,15551.3,green,fast,27,56,A3JCMVMH9UQW88,critical
1586,Red roses,17958,red,calm,27,57,A3JCMVMH9UQW88,critical
1587,Old candy,10328.9,red,stale,27,58,A3JCMVMH9UQW88,critical
1588,Ghost peppers,6825.9,red,disliked,27,59,A3JCMVMH9UQW88,critical
1589,Green pond,45524.5,green,calm,27,60,A3JCMVMH9UQW88,critical
1590,Envy,3412.3,green,jealous,27,61,A3JCMVMH9UQW88,critical
1591,Green mamba snake,4948.9,green,aggressive,27,62,A3JCMVMH9UQW88,critical
1592,Bowling ball,4607.7,green,hard,27,63,A3JCMVMH9UQW88,critical
1593,Play dough,4599.8,green,soft,27,64,A3JCMVMH9UQW88,critical
1594,Small crab apples,16025.3,red,unripe,27,65,A3JCMVMH9UQW88,critical
1595,Old tricycle,6573.5,red,dirty,27,66,A3JCMVMH9UQW88,critical
1596,Barney the dinosaur,3476,purple,relaxed,27,67,A3JCMVMH9UQW88,critical
1597,Lilac,52859.8,purple,light,27,68,A3JCMVMH9UQW88,critical
1598,Play dough,6578,purple,soft,27,69,A3JCMVMH9UQW88,critical
1599,Red cabbage,7597.2,purple,passive,27,70,A3JCMVMH9UQW88,critical
1600,Firetruck,4396.3,red,fast,27,71,A3JCMVMH9UQW88,critical
1601,Astroturf,12795.3,green,dirty,27,72,A3JCMVMH9UQW88,critical
1602,Apple,5838.3,red,fresh,27,73,A3JCMVMH9UQW88,critical
1603,Eggplant,2538,purple,dull,27,74,A3JCMVMH9UQW88,critical
1604,Balloon,7864.7,red,relaxed,27,76,A3JCMVMH9UQW88,critical
1605,Green banana,8920.3,green,unripe,27,77,A3JCMVMH9UQW88,critical
1606,Unripe cabbage,19966,purple,unripe,27,78,A3JCMVMH9UQW88,critical
1607,Bowling ball,19181.7,purple,heavy,27,79,A3JCMVMH9UQW88,critical
1608,Kermit the frog,6895.7,green,liked,27,80,A3JCMVMH9UQW88,critical
1609,Fire extinguisher,10602.6,red,cold,27,81,A3JCMVMH9UQW88,critical
1610,Green mamba snake,26683.5,green,angry,27,83,A3JCMVMH9UQW88,critical
1611,Growing plants,32963.4,green,slow,27,84,A3JCMVMH9UQW88,critical
1612,Old tricycle,51077.7,red,old,27,85,A3JCMVMH9UQW88,critical
1613,Angry cartoon,28323,red,angry,27,86,A3JCMVMH9UQW88,critical
1614,Growing red cabbage,10357.7,purple,slow,27,87,A3JCMVMH9UQW88,critical
1615,Apple,5324.9,red,alive,27,88,A3JCMVMH9UQW88,critical
1616,Granny smith apple,3651.2,green,alive,27,89,A3JCMVMH9UQW88,critical
1617,New bike,4755.4,purple,new,27,90,A3JCMVMH9UQW88,critical
1618,Envy,10429.5,green,tense,27,91,A3JCMVMH9UQW88,critical
1619,Palm tree,6196.7,green,passive,27,92,A3JCMVMH9UQW88,critical
1620,Kermit the frog,5200.6,green,happy,27,93,A3JCMVMH9UQW88,critical
1621,Old Eggplant,5476.4,purple,stale,27,94,A3JCMVMH9UQW88,critical
1622,Apple,2691.6,red,ripe,27,95,A3JCMVMH9UQW88,critical
1623,Santa,7957,red,slow,27,96,A3JCMVMH9UQW88,critical
1624,Bowling ball,2626.5,green,heavy,27,97,A3JCMVMH9UQW88,critical
1625,Lilac,5459.4,purple,calm,27,98,A3JCMVMH9UQW88,critical
1626,Eggplant,2297.1,purple,fresh,27,99,A3JCMVMH9UQW88,critical
1627,Green mamba snake,4569.8,green,active,27,100,A3JCMVMH9UQW88,critical
1628,Old tricycle,5270.1,purple,dirty,27,101,A3JCMVMH9UQW88,critical
1629,Salad,4033.4,green,fresh,27,102,A3JCMVMH9UQW88,critical
1630,Tight purple rope,28112.8,purple,tense,27,103,A3JCMVMH9UQW88,critical
1631,Brussels sprouts,9747.4,green,disliked,27,104,A3JCMVMH9UQW88,critical
1632,Grimace from McDonald's,15078.6,purple,jealous,27,105,A3JCMVMH9UQW88,critical
1633,Polar Bear,9043.585,white,aggressive,13,1,A20XDCBFKG4TEE,critical
1634,bluejay,153716.58,blue,submissive,13,2,A20XDCBFKG4TEE,critical
